"rt","stimulus","response","trial_type","trial_index","time_elapsed","internal_node_id","subject_id","condition_num","sona_id","success","question_order","slider_start","practiceTrial","practiceTrialNum","correct","concept","texture_id"
"2254","Welcome to our experiment!<p>At the bottom of this screen, you will see a button that says ""Begin Experiment"".<br>Please only click that button when you are ready to complete the 30 minute experiment in one sitting.</p><p> Once you click that button, it will not be possible to restart the experiment.","0","html-button-response","0","2256","0.0-0.0","75ex0hgmnd","3","91021","","","","","","","",""
"1042","","","fullscreen","1","4300","0.0-1.0","75ex0hgmnd","3","91021","true","","","","","","",""
"6778","","{""Consent"":[""<strong>I consent</strong>""]}","survey-multi-select","2","11079","0.0-2.0","75ex0hgmnd","3","91021","","[0]","","","","","",""
"1189","Welcome! <p> This experiment involves two parts: demographic information, followed by the experimental task.<p> It will take about 30 minutes to complete both parts.","0","html-button-response","3","12269","0.0-3.0","75ex0hgmnd","3","91021","","","","","","","",""
"11513","","{""Age"":""19"",""Gender"":""Female"",""Race/ethnicity"":""White"",""Languages"":""English""}","survey-text","4","23785","0.0-4.0","75ex0hgmnd","3","91021","","","","","","","",""
"7979","
                        <div style=""height:720px;"">
                            <div style='text-align:left; font-size:18px; line-height:25px; width: 1200px;'>
                                During this experiment you will be presented with a series of concepts, one at a time, from the set below:                             </div>

                            <div style=""text-align: left; width: 1200px;"">
                                <p style=""font-size:18px; line-height:20px; text-align:center; font-weight:bold "">angry,
                                    disgust, fearful, sad, happy
                                <p style=""font-size:18px; line-height:18px;""></p>
                            </div>
                            <div style='text-align:left; font-size:18px; line-height:25px; width: 1200px;'>
                                For each concept, you will be asked to rate how much you associate it with each of the visual textures
                                below on a scale from 'not at all' to 'very much'.                            </div>
                            <div style=""display: flex; justify-content: center; width: 90%;"">
                                <div style=""text-align: center; width: 1000px; display: grid; grid-template-columns: repeat(13, .5fr); gap: 5px; padding: 5px; margin: 0 auto;"">
                                    
                                    <div style=""width: 95%; aspect-ratio: 1;"">
                                        <img src=""images/D1.png"" style=""width: 100%; height: 100%; object-fit: cover;"">
                                    </div>
                                    
                                    <div style=""width: 95%; aspect-ratio: 1;"">
                                        <img src=""images/D4.png"" style=""width: 100%; height: 100%; object-fit: cover;"">
                                    </div>
                                    
                                    <div style=""width: 95%; aspect-ratio: 1;"">
                                        <img src=""images/D8.png"" style=""width: 100%; height: 100%; object-fit: cover;"">
                                    </div>
                                    
                                    <div style=""width: 95%; aspect-ratio: 1;"">
                                        <img src=""images/D11.png"" style=""width: 100%; height: 100%; object-fit: cover;"">
                                    </div>
                                    
                                    <div style=""width: 95%; aspect-ratio: 1;"">
                                        <img src=""images/D14.png"" style=""width: 100%; height: 100%; object-fit: cover;"">
                                    </div>
                                    
                                    <div style=""width: 95%; aspect-ratio: 1;"">
                                        <img src=""images/D16.png"" style=""width: 100%; height: 100%; object-fit: cover;"">
                                    </div>
                                    
                                    <div style=""width: 95%; aspect-ratio: 1;"">
                                        <img src=""images/D17.png"" style=""width: 100%; height: 100%; object-fit: cover;"">
                                    </div>
                                    
                                    <div style=""width: 95%; aspect-ratio: 1;"">
                                        <img src=""images/D18.png"" style=""width: 100%; height: 100%; object-fit: cover;"">
                                    </div>
                                    
                                    <div style=""width: 95%; aspect-ratio: 1;"">
                                        <img src=""images/D19.png"" style=""width: 100%; height: 100%; object-fit: cover;"">
                                    </div>
                                    
                                    <div style=""width: 95%; aspect-ratio: 1;"">
                                        <img src=""images/D20.png"" style=""width: 100%; height: 100%; object-fit: cover;"">
                                    </div>
                                    
                                    <div style=""width: 95%; aspect-ratio: 1;"">
                                        <img src=""images/D22.png"" style=""width: 100%; height: 100%; object-fit: cover;"">
                                    </div>
                                    
                                    <div style=""width: 95%; aspect-ratio: 1;"">
                                        <img src=""images/D25.png"" style=""width: 100%; height: 100%; object-fit: cover;"">
                                    </div>
                                    
                                    <div style=""width: 95%; aspect-ratio: 1;"">
                                        <img src=""images/D26.png"" style=""width: 100%; height: 100%; object-fit: cover;"">
                                    </div>
                                    
                                    <div style=""width: 95%; aspect-ratio: 1;"">
                                        <img src=""images/D34.png"" style=""width: 100%; height: 100%; object-fit: cover;"">
                                    </div>
                                    
                                    <div style=""width: 95%; aspect-ratio: 1;"">
                                        <img src=""images/D35.png"" style=""width: 100%; height: 100%; object-fit: cover;"">
                                    </div>
                                    
                                    <div style=""width: 95%; aspect-ratio: 1;"">
                                        <img src=""images/D36.png"" style=""width: 100%; height: 100%; object-fit: cover;"">
                                    </div>
                                    
                                    <div style=""width: 95%; aspect-ratio: 1;"">
                                        <img src=""images/D37.png"" style=""width: 100%; height: 100%; object-fit: cover;"">
                                    </div>
                                    
                                    <div style=""width: 95%; aspect-ratio: 1;"">
                                        <img src=""images/D46.png"" style=""width: 100%; height: 100%; object-fit: cover;"">
                                    </div>
                                    
                                    <div style=""width: 95%; aspect-ratio: 1;"">
                                        <img src=""images/D47.png"" style=""width: 100%; height: 100%; object-fit: cover;"">
                                    </div>
                                    
                                    <div style=""width: 95%; aspect-ratio: 1;"">
                                        <img src=""images/D48.png"" style=""width: 100%; height: 100%; object-fit: cover;"">
                                    </div>
                                    
                                    <div style=""width: 95%; aspect-ratio: 1;"">
                                        <img src=""images/D49.png"" style=""width: 100%; height: 100%; object-fit: cover;"">
                                    </div>
                                    
                                    <div style=""width: 95%; aspect-ratio: 1;"">
                                        <img src=""images/D51.png"" style=""width: 100%; height: 100%; object-fit: cover;"">
                                    </div>
                                    
                                    <div style=""width: 95%; aspect-ratio: 1;"">
                                        <img src=""images/D52.png"" style=""width: 100%; height: 100%; object-fit: cover;"">
                                    </div>
                                    
                                    <div style=""width: 95%; aspect-ratio: 1;"">
                                        <img src=""images/D53.png"" style=""width: 100%; height: 100%; object-fit: cover;"">
                                    </div>
                                    
                                    <div style=""width: 95%; aspect-ratio: 1;"">
                                        <img src=""images/D55.png"" style=""width: 100%; height: 100%; object-fit: cover;"">
                                    </div>
                                    
                                    <div style=""width: 95%; aspect-ratio: 1;"">
                                        <img src=""images/D56.png"" style=""width: 100%; height: 100%; object-fit: cover;"">
                                    </div>
                                    
                                    <div style=""width: 95%; aspect-ratio: 1;"">
                                        <img src=""images/D57.png"" style=""width: 100%; height: 100%; object-fit: cover;"">
                                    </div>
                                    
                                    <div style=""width: 95%; aspect-ratio: 1;"">
                                        <img src=""images/D64.png"" style=""width: 100%; height: 100%; object-fit: cover;"">
                                    </div>
                                    
                                    <div style=""width: 95%; aspect-ratio: 1;"">
                                        <img src=""images/D65.png"" style=""width: 100%; height: 100%; object-fit: cover;"">
                                    </div>
                                    
                                    <div style=""width: 95%; aspect-ratio: 1;"">
                                        <img src=""images/D66.png"" style=""width: 100%; height: 100%; object-fit: cover;"">
                                    </div>
                                    
                                    <div style=""width: 95%; aspect-ratio: 1;"">
                                        <img src=""images/D68.png"" style=""width: 100%; height: 100%; object-fit: cover;"">
                                    </div>
                                    
                                    <div style=""width: 95%; aspect-ratio: 1;"">
                                        <img src=""images/D74.png"" style=""width: 100%; height: 100%; object-fit: cover;"">
                                    </div>
                                    
                                    <div style=""width: 95%; aspect-ratio: 1;"">
                                        <img src=""images/D75.png"" style=""width: 100%; height: 100%; object-fit: cover;"">
                                    </div>
                                    
                                    <div style=""width: 95%; aspect-ratio: 1;"">
                                        <img src=""images/D76.png"" style=""width: 100%; height: 100%; object-fit: cover;"">
                                    </div>
                                    
                                    <div style=""width: 95%; aspect-ratio: 1;"">
                                        <img src=""images/D77.png"" style=""width: 100%; height: 100%; object-fit: cover;"">
                                    </div>
                                    
                                    <div style=""width: 95%; aspect-ratio: 1;"">
                                        <img src=""images/D78.png"" style=""width: 100%; height: 100%; object-fit: cover;"">
                                    </div>
                                    
                                    <div style=""width: 95%; aspect-ratio: 1;"">
                                        <img src=""images/D79.png"" style=""width: 100%; height: 100%; object-fit: cover;"">
                                    </div>
                                    
                                    <div style=""width: 95%; aspect-ratio: 1;"">
                                        <img src=""images/D81.png"" style=""width: 100%; height: 100%; object-fit: cover;"">
                                    </div>
                                    
                                    <div style=""width: 95%; aspect-ratio: 1;"">
                                        <img src=""images/D82.png"" style=""width: 100%; height: 100%; object-fit: cover;"">
                                    </div>
                                    
                                    <div style=""width: 95%; aspect-ratio: 1;"">
                                        <img src=""images/D83.png"" style=""width: 100%; height: 100%; object-fit: cover;"">
                                    </div>
                                    
                                    <div style=""width: 95%; aspect-ratio: 1;"">
                                        <img src=""images/D84.png"" style=""width: 100%; height: 100%; object-fit: cover;"">
                                    </div>
                                    
                                    <div style=""width: 95%; aspect-ratio: 1;"">
                                        <img src=""images/D85.png"" style=""width: 100%; height: 100%; object-fit: cover;"">
                                    </div>
                                    
                                    <div style=""width: 95%; aspect-ratio: 1;"">
                                        <img src=""images/D87.png"" style=""width: 100%; height: 100%; object-fit: cover;"">
                                    </div>
                                    
                                    <div style=""width: 95%; aspect-ratio: 1;"">
                                        <img src=""images/D92.png"" style=""width: 100%; height: 100%; object-fit: cover;"">
                                    </div>
                                    
                                    <div style=""width: 95%; aspect-ratio: 1;"">
                                        <img src=""images/D94.png"" style=""width: 100%; height: 100%; object-fit: cover;"">
                                    </div>
                                    
                                    <div style=""width: 95%; aspect-ratio: 1;"">
                                        <img src=""images/D95.png"" style=""width: 100%; height: 100%; object-fit: cover;"">
                                    </div>
                                    
                                    <div style=""width: 95%; aspect-ratio: 1;"">
                                        <img src=""images/D96.png"" style=""width: 100%; height: 100%; object-fit: cover;"">
                                    </div>
                                    
                                    <div style=""width: 95%; aspect-ratio: 1;"">
                                        <img src=""images/D101.png"" style=""width: 100%; height: 100%; object-fit: cover;"">
                                    </div>
                                    
                                    <div style=""width: 95%; aspect-ratio: 1;"">
                                        <img src=""images/D102.png"" style=""width: 100%; height: 100%; object-fit: cover;"">
                                    </div>
                                    
                                    <div style=""width: 95%; aspect-ratio: 1;"">
                                        <img src=""images/D103.png"" style=""width: 100%; height: 100%; object-fit: cover;"">
                                    </div>
                                    
                                    <div style=""width: 95%; aspect-ratio: 1;"">
                                        <img src=""images/D104.png"" style=""width: 100%; height: 100%; object-fit: cover;"">
                                    </div>
                                    
                                    <div style=""width: 95%; aspect-ratio: 1;"">
                                        <img src=""images/D105.png"" style=""width: 100%; height: 100%; object-fit: cover;"">
                                    </div>
                                    
                                </div>
                            </div>
                            <br>
                            <div style='text-align:left; font-size:18px; line-height:25px; width: 1200px;'>
                                Each trial will include one concept word and one visual texture. You will be asked to make your rating by
                                sliding the cursor along a slider response scale.<br>                                Before beginning, please look at the list of concepts and textures.                                 For each concept, think about the texture you associate least with it.                                When you see that texture paired with that concept please click on the left endpoint of the scale near 'not at
                                all'.                                Now, please think about the texture you associate most with it.                                When you see that texture paired with that concept please click on the right endpoint of the scale near 'very
                                much'. <br><br>                                Please use the full range of the scale.                                That is, if you believe a concept is somewhat associated with a texture, you would click at the midpoint of the
                                scale.                                You will be asked to rate each texture for a given concept before moving on to the next.<br>Press the 'Continue'
                                button for instructions on how to use the slider.

                            </div>
                            <!-- Centered text paragraphs -->

                        </div>
                         ","null","html-slider-response","5","31766","0.0-5.0","75ex0hgmnd","3","91021","","","0","true","","","",""
"1503","<div style=""width:800px;""><p style=""text-align:left"">To move the slider, click and drag your cursor to the location of the scale where you would like to make your rating and then let go. When you let go of the slider, your response will be recorded and the next trial will begin. <br>
                    We are interested in your initial impressions of each concept for a given scale, so please go with your first intuition. <br>
                    Before you begin the experiment, there will be four training trials for you to practice using the slider. <br>
                     When you are ready to start the training trials, please click ""Continue"".</p><br></div>","0","html-button-response","6","33270","0.0-6.0","75ex0hgmnd","3","91021","","","","","","","",""
"NaN","<div style=""width:500px;"">
                                    <p style=""font-size:25px;"">Please move the slider all the way to the <br> right endpoint of the scale</p>

                                    </div>
                                </div>","200","html-slider-response","7","36528","0.0-7.0-0.0","75ex0hgmnd","3","91021","","","0","true","0","true","",""
"858","<p align='center'><b>Good job!</b> Click on 'Continue' to proceed.</p>","0","html-button-response","8","37900","0.0-7.0-1.0","75ex0hgmnd","3","91021","","","","","","","",""
"NaN","<div style=""width:500px;"">
                                    <p style=""font-size:25px;"">Please move the slider all the way to the <br> left endpoint of the scale</p>

                                    </div>
                                </div>","-200","html-slider-response","9","39295","0.0-8.0-0.0","75ex0hgmnd","3","91021","","","0","true","1","true","",""
"577","<p align='center'><b>Good job!</b> Click on 'Continue' to proceed.</p>","0","html-button-response","10","40373","0.0-8.0-1.0","75ex0hgmnd","3","91021","","","","","","","",""
"NaN","<div style=""width:500px;"">
                                    <p style=""font-size:25px;"">Please move the slider halfway between the center and right endpoint of the scale</p>

                                    </div>
                                </div>","-1","html-slider-response","11","42700","0.0-9.0-0.0","75ex0hgmnd","3","91021","","","0","true","2","false","",""
"552","<p align='center'><b>Not quite!</b> The slider was not placed near the instructed located. Click on 'Continue' to try again. </p>","0","html-button-response","12","43756","0.0-9.0-1.0","75ex0hgmnd","3","91021","","","","","","","",""
"NaN","<div style=""width:500px;"">
                                    <p style=""font-size:25px;"">Please move the slider halfway between the center and right endpoint of the scale</p>

                                    </div>
                                </div>","102","html-slider-response","13","47549","0.0-9.1-0.1","75ex0hgmnd","3","91021","","","0","true","2","true","",""
"924","<p align='center'><b>Good job!</b> Click on 'Continue' to proceed.</p>","0","html-button-response","14","48974","0.0-9.1-1.1","75ex0hgmnd","3","91021","","","","","","","",""
"NaN","<div style=""width:500px;"">
                                    <p style=""font-size:25px;"">Please move the slider halfway between the center and left endpoint of the scale</p>

                                    </div>
                                </div>","-106","html-slider-response","15","51814","0.0-10.0-0.0","75ex0hgmnd","3","91021","","","0","true","3","true","",""
"514","<p align='center'><b>Good job!</b> Click on 'Continue' to proceed.</p>","0","html-button-response","16","52841","0.0-10.0-1.0","75ex0hgmnd","3","91021","","","","","","","",""
"715","<p>Great job! You've completed the practice trials. Now you will begin the main task.</p>","0","html-button-response","17","53556","0.0-11.0","75ex0hgmnd","3","91021","","","","","","","",""
"2390","<p>In this block of trials, you will be asked to rate how much you associate each texture with the concept</p > <p style = 'font-size:150%; font-weight: bold'>angry</p><br></br>","0","html-button-response","18","55946","0.0-12.0","75ex0hgmnd","3","91021","","","","","","","",""
"NaN","<div style=""width:500px;"">
                            <p style=""font-size:50px; font-weight:bold;""
                            >angry</p>
                            <div style=""width:240px; margin: auto;"">
                                <img src=""images/D18.png"" style= ""width:200px""alt=""img"">
                            </div>
                        </div>","-200","html-slider-response","19","61177","0.0-13.0","75ex0hgmnd","3","91021","","","0","","","","angry","images/D18.png"
"NaN","<div style=""width:500px;"">
                            <p style=""font-size:50px; font-weight:bold;""
                            >angry</p>
                            <div style=""width:240px; margin: auto;"">
                                <img src=""images/D64.png"" style= ""width:200px""alt=""img"">
                            </div>
                        </div>","-200","html-slider-response","20","63846","0.0-14.0","75ex0hgmnd","3","91021","","","0","","","","angry","images/D64.png"
"NaN","<div style=""width:500px;"">
                            <p style=""font-size:50px; font-weight:bold;""
                            >angry</p>
                            <div style=""width:240px; margin: auto;"">
                                <img src=""images/D87.png"" style= ""width:200px""alt=""img"">
                            </div>
                        </div>","-109","html-slider-response","21","82916","0.0-15.0","75ex0hgmnd","3","91021","","","0","","","","angry","images/D87.png"
"NaN","<div style=""width:500px;"">
                            <p style=""font-size:50px; font-weight:bold;""
                            >angry</p>
                            <div style=""width:240px; margin: auto;"">
                                <img src=""images/D103.png"" style= ""width:200px""alt=""img"">
                            </div>
                        </div>","38","html-slider-response","22","200222","0.0-16.0","75ex0hgmnd","3","91021","","","0","","","","angry","images/D103.png"
"NaN","<div style=""width:500px;"">
                            <p style=""font-size:50px; font-weight:bold;""
                            >angry</p>
                            <div style=""width:240px; margin: auto;"">
                                <img src=""images/D35.png"" style= ""width:200px""alt=""img"">
                            </div>
                        </div>","50","html-slider-response","23","203033","0.0-17.0","75ex0hgmnd","3","91021","","","0","","","","angry","images/D35.png"
"NaN","<div style=""width:500px;"">
                            <p style=""font-size:50px; font-weight:bold;""
                            >angry</p>
                            <div style=""width:240px; margin: auto;"">
                                <img src=""images/D85.png"" style= ""width:200px""alt=""img"">
                            </div>
                        </div>","198","html-slider-response","24","206370","0.0-18.0","75ex0hgmnd","3","91021","","","0","","","","angry","images/D85.png"
"NaN","<div style=""width:500px;"">
                            <p style=""font-size:50px; font-weight:bold;""
                            >angry</p>
                            <div style=""width:240px; margin: auto;"">
                                <img src=""images/D1.png"" style= ""width:200px""alt=""img"">
                            </div>
                        </div>","94","html-slider-response","25","209074","0.0-19.0","75ex0hgmnd","3","91021","","","0","","","","angry","images/D1.png"
"NaN","<div style=""width:500px;"">
                            <p style=""font-size:50px; font-weight:bold;""
                            >angry</p>
                            <div style=""width:240px; margin: auto;"">
                                <img src=""images/D17.png"" style= ""width:200px""alt=""img"">
                            </div>
                        </div>","106","html-slider-response","26","211047","0.0-20.0","75ex0hgmnd","3","91021","","","0","","","","angry","images/D17.png"
"NaN","<div style=""width:500px;"">
                            <p style=""font-size:50px; font-weight:bold;""
                            >angry</p>
                            <div style=""width:240px; margin: auto;"">
                                <img src=""images/D53.png"" style= ""width:200px""alt=""img"">
                            </div>
                        </div>","122","html-slider-response","27","212894","0.0-21.0","75ex0hgmnd","3","91021","","","0","","","","angry","images/D53.png"
"NaN","<div style=""width:500px;"">
                            <p style=""font-size:50px; font-weight:bold;""
                            >angry</p>
                            <div style=""width:240px; margin: auto;"">
                                <img src=""images/D14.png"" style= ""width:200px""alt=""img"">
                            </div>
                        </div>","198","html-slider-response","28","215464","0.0-22.0","75ex0hgmnd","3","91021","","","0","","","","angry","images/D14.png"
"NaN","<div style=""width:500px;"">
                            <p style=""font-size:50px; font-weight:bold;""
                            >angry</p>
                            <div style=""width:240px; margin: auto;"">
                                <img src=""images/D20.png"" style= ""width:200px""alt=""img"">
                            </div>
                        </div>","200","html-slider-response","29","217878","0.0-23.0","75ex0hgmnd","3","91021","","","0","","","","angry","images/D20.png"
"NaN","<div style=""width:500px;"">
                            <p style=""font-size:50px; font-weight:bold;""
                            >angry</p>
                            <div style=""width:240px; margin: auto;"">
                                <img src=""images/D78.png"" style= ""width:200px""alt=""img"">
                            </div>
                        </div>","43","html-slider-response","30","220348","0.0-24.0","75ex0hgmnd","3","91021","","","0","","","","angry","images/D78.png"
"NaN","<div style=""width:500px;"">
                            <p style=""font-size:50px; font-weight:bold;""
                            >angry</p>
                            <div style=""width:240px; margin: auto;"">
                                <img src=""images/D37.png"" style= ""width:200px""alt=""img"">
                            </div>
                        </div>","-200","html-slider-response","31","223346","0.0-25.0","75ex0hgmnd","3","91021","","","0","","","","angry","images/D37.png"
"NaN","<div style=""width:500px;"">
                            <p style=""font-size:50px; font-weight:bold;""
                            >angry</p>
                            <div style=""width:240px; margin: auto;"">
                                <img src=""images/D22.png"" style= ""width:200px""alt=""img"">
                            </div>
                        </div>","103","html-slider-response","32","225271","0.0-26.0","75ex0hgmnd","3","91021","","","0","","","","angry","images/D22.png"
"NaN","<div style=""width:500px;"">
                            <p style=""font-size:50px; font-weight:bold;""
                            >angry</p>
                            <div style=""width:240px; margin: auto;"">
                                <img src=""images/D102.png"" style= ""width:200px""alt=""img"">
                            </div>
                        </div>","-101","html-slider-response","33","227621","0.0-27.0","75ex0hgmnd","3","91021","","","0","","","","angry","images/D102.png"
"NaN","<div style=""width:500px;"">
                            <p style=""font-size:50px; font-weight:bold;""
                            >angry</p>
                            <div style=""width:240px; margin: auto;"">
                                <img src=""images/D26.png"" style= ""width:200px""alt=""img"">
                            </div>
                        </div>","-200","html-slider-response","34","230100","0.0-28.0","75ex0hgmnd","3","91021","","","0","","","","angry","images/D26.png"
"NaN","<div style=""width:500px;"">
                            <p style=""font-size:50px; font-weight:bold;""
                            >angry</p>
                            <div style=""width:240px; margin: auto;"">
                                <img src=""images/D51.png"" style= ""width:200px""alt=""img"">
                            </div>
                        </div>","-106","html-slider-response","35","232396","0.0-29.0","75ex0hgmnd","3","91021","","","0","","","","angry","images/D51.png"
"NaN","<div style=""width:500px;"">
                            <p style=""font-size:50px; font-weight:bold;""
                            >angry</p>
                            <div style=""width:240px; margin: auto;"">
                                <img src=""images/D82.png"" style= ""width:200px""alt=""img"">
                            </div>
                        </div>","98","html-slider-response","36","235390","0.0-30.0","75ex0hgmnd","3","91021","","","0","","","","angry","images/D82.png"
"NaN","<div style=""width:500px;"">
                            <p style=""font-size:50px; font-weight:bold;""
                            >angry</p>
                            <div style=""width:240px; margin: auto;"">
                                <img src=""images/D46.png"" style= ""width:200px""alt=""img"">
                            </div>
                        </div>","-200","html-slider-response","37","237533","0.0-31.0","75ex0hgmnd","3","91021","","","0","","","","angry","images/D46.png"
"NaN","<div style=""width:500px;"">
                            <p style=""font-size:50px; font-weight:bold;""
                            >angry</p>
                            <div style=""width:240px; margin: auto;"">
                                <img src=""images/D57.png"" style= ""width:200px""alt=""img"">
                            </div>
                        </div>","106","html-slider-response","38","239485","0.0-32.0","75ex0hgmnd","3","91021","","","0","","","","angry","images/D57.png"
"NaN","<div style=""width:500px;"">
                            <p style=""font-size:50px; font-weight:bold;""
                            >angry</p>
                            <div style=""width:240px; margin: auto;"">
                                <img src=""images/D101.png"" style= ""width:200px""alt=""img"">
                            </div>
                        </div>","-103","html-slider-response","39","241170","0.0-33.0","75ex0hgmnd","3","91021","","","0","","","","angry","images/D101.png"
"NaN","<div style=""width:500px;"">
                            <p style=""font-size:50px; font-weight:bold;""
                            >angry</p>
                            <div style=""width:240px; margin: auto;"">
                                <img src=""images/D83.png"" style= ""width:200px""alt=""img"">
                            </div>
                        </div>","96","html-slider-response","40","243156","0.0-34.0","75ex0hgmnd","3","91021","","","0","","","","angry","images/D83.png"
"NaN","<div style=""width:500px;"">
                            <p style=""font-size:50px; font-weight:bold;""
                            >angry</p>
                            <div style=""width:240px; margin: auto;"">
                                <img src=""images/D56.png"" style= ""width:200px""alt=""img"">
                            </div>
                        </div>","40","html-slider-response","41","248092","0.0-35.0","75ex0hgmnd","3","91021","","","0","","","","angry","images/D56.png"
"NaN","<div style=""width:500px;"">
                            <p style=""font-size:50px; font-weight:bold;""
                            >angry</p>
                            <div style=""width:240px; margin: auto;"">
                                <img src=""images/D8.png"" style= ""width:200px""alt=""img"">
                            </div>
                        </div>","-106","html-slider-response","42","251169","0.0-36.0","75ex0hgmnd","3","91021","","","0","","","","angry","images/D8.png"
"NaN","<div style=""width:500px;"">
                            <p style=""font-size:50px; font-weight:bold;""
                            >angry</p>
                            <div style=""width:240px; margin: auto;"">
                                <img src=""images/D48.png"" style= ""width:200px""alt=""img"">
                            </div>
                        </div>","-200","html-slider-response","43","253807","0.0-37.0","75ex0hgmnd","3","91021","","","0","","","","angry","images/D48.png"
"NaN","<div style=""width:500px;"">
                            <p style=""font-size:50px; font-weight:bold;""
                            >angry</p>
                            <div style=""width:240px; margin: auto;"">
                                <img src=""images/D34.png"" style= ""width:200px""alt=""img"">
                            </div>
                        </div>","-102","html-slider-response","44","255981","0.0-38.0","75ex0hgmnd","3","91021","","","0","","","","angry","images/D34.png"
"NaN","<div style=""width:500px;"">
                            <p style=""font-size:50px; font-weight:bold;""
                            >angry</p>
                            <div style=""width:240px; margin: auto;"">
                                <img src=""images/D75.png"" style= ""width:200px""alt=""img"">
                            </div>
                        </div>","99","html-slider-response","45","259521","0.0-39.0","75ex0hgmnd","3","91021","","","0","","","","angry","images/D75.png"
"NaN","<div style=""width:500px;"">
                            <p style=""font-size:50px; font-weight:bold;""
                            >angry</p>
                            <div style=""width:240px; margin: auto;"">
                                <img src=""images/D81.png"" style= ""width:200px""alt=""img"">
                            </div>
                        </div>","49","html-slider-response","46","263035","0.0-40.0","75ex0hgmnd","3","91021","","","0","","","","angry","images/D81.png"
"NaN","<div style=""width:500px;"">
                            <p style=""font-size:50px; font-weight:bold;""
                            >angry</p>
                            <div style=""width:240px; margin: auto;"">
                                <img src=""images/D66.png"" style= ""width:200px""alt=""img"">
                            </div>
                        </div>","50","html-slider-response","47","264915","0.0-41.0","75ex0hgmnd","3","91021","","","0","","","","angry","images/D66.png"
"NaN","<div style=""width:500px;"">
                            <p style=""font-size:50px; font-weight:bold;""
                            >angry</p>
                            <div style=""width:240px; margin: auto;"">
                                <img src=""images/D79.png"" style= ""width:200px""alt=""img"">
                            </div>
                        </div>","200","html-slider-response","48","266787","0.0-42.0","75ex0hgmnd","3","91021","","","0","","","","angry","images/D79.png"
"NaN","<div style=""width:500px;"">
                            <p style=""font-size:50px; font-weight:bold;""
                            >angry</p>
                            <div style=""width:240px; margin: auto;"">
                                <img src=""images/D77.png"" style= ""width:200px""alt=""img"">
                            </div>
                        </div>","-200","html-slider-response","49","269364","0.0-43.0","75ex0hgmnd","3","91021","","","0","","","","angry","images/D77.png"
"NaN","<div style=""width:500px;"">
                            <p style=""font-size:50px; font-weight:bold;""
                            >angry</p>
                            <div style=""width:240px; margin: auto;"">
                                <img src=""images/D47.png"" style= ""width:200px""alt=""img"">
                            </div>
                        </div>","-101","html-slider-response","50","271561","0.0-44.0","75ex0hgmnd","3","91021","","","0","","","","angry","images/D47.png"
"NaN","<div style=""width:500px;"">
                            <p style=""font-size:50px; font-weight:bold;""
                            >angry</p>
                            <div style=""width:240px; margin: auto;"">
                                <img src=""images/D65.png"" style= ""width:200px""alt=""img"">
                            </div>
                        </div>","104","html-slider-response","51","273653","0.0-45.0","75ex0hgmnd","3","91021","","","0","","","","angry","images/D65.png"
"NaN","<div style=""width:500px;"">
                            <p style=""font-size:50px; font-weight:bold;""
                            >angry</p>
                            <div style=""width:240px; margin: auto;"">
                                <img src=""images/D36.png"" style= ""width:200px""alt=""img"">
                            </div>
                        </div>","109","html-slider-response","52","275553","0.0-46.0","75ex0hgmnd","3","91021","","","0","","","","angry","images/D36.png"
"NaN","<div style=""width:500px;"">
                            <p style=""font-size:50px; font-weight:bold;""
                            >angry</p>
                            <div style=""width:240px; margin: auto;"">
                                <img src=""images/D25.png"" style= ""width:200px""alt=""img"">
                            </div>
                        </div>","-200","html-slider-response","53","278284","0.0-47.0","75ex0hgmnd","3","91021","","","0","","","","angry","images/D25.png"
"NaN","<div style=""width:500px;"">
                            <p style=""font-size:50px; font-weight:bold;""
                            >angry</p>
                            <div style=""width:240px; margin: auto;"">
                                <img src=""images/D11.png"" style= ""width:200px""alt=""img"">
                            </div>
                        </div>","102","html-slider-response","54","281462","0.0-48.0","75ex0hgmnd","3","91021","","","0","","","","angry","images/D11.png"
"NaN","<div style=""width:500px;"">
                            <p style=""font-size:50px; font-weight:bold;""
                            >angry</p>
                            <div style=""width:240px; margin: auto;"">
                                <img src=""images/D111.png"" style= ""width:200px""alt=""img"">
                            </div>
                        </div>","91","html-slider-response","55","283259","0.0-49.0","75ex0hgmnd","3","91021","","","0","","","","angry","images/D111.png"
"NaN","<div style=""width:500px;"">
                            <p style=""font-size:50px; font-weight:bold;""
                            >angry</p>
                            <div style=""width:240px; margin: auto;"">
                                <img src=""images/D84.png"" style= ""width:200px""alt=""img"">
                            </div>
                        </div>","95","html-slider-response","56","285247","0.0-50.0","75ex0hgmnd","3","91021","","","0","","","","angry","images/D84.png"
"NaN","<div style=""width:500px;"">
                            <p style=""font-size:50px; font-weight:bold;""
                            >angry</p>
                            <div style=""width:240px; margin: auto;"">
                                <img src=""images/D52.png"" style= ""width:200px""alt=""img"">
                            </div>
                        </div>","99","html-slider-response","57","287014","0.0-51.0","75ex0hgmnd","3","91021","","","0","","","","angry","images/D52.png"
"NaN","<div style=""width:500px;"">
                            <p style=""font-size:50px; font-weight:bold;""
                            >angry</p>
                            <div style=""width:240px; margin: auto;"">
                                <img src=""images/D68.png"" style= ""width:200px""alt=""img"">
                            </div>
                        </div>","102","html-slider-response","58","290318","0.0-52.0","75ex0hgmnd","3","91021","","","0","","","","angry","images/D68.png"
"NaN","<div style=""width:500px;"">
                            <p style=""font-size:50px; font-weight:bold;""
                            >angry</p>
                            <div style=""width:240px; margin: auto;"">
                                <img src=""images/D104.png"" style= ""width:200px""alt=""img"">
                            </div>
                        </div>","98","html-slider-response","59","291890","0.0-53.0","75ex0hgmnd","3","91021","","","0","","","","angry","images/D104.png"
"NaN","<div style=""width:500px;"">
                            <p style=""font-size:50px; font-weight:bold;""
                            >angry</p>
                            <div style=""width:240px; margin: auto;"">
                                <img src=""images/D76.png"" style= ""width:200px""alt=""img"">
                            </div>
                        </div>","-115","html-slider-response","60","295442","0.0-54.0","75ex0hgmnd","3","91021","","","0","","","","angry","images/D76.png"
"NaN","<div style=""width:500px;"">
                            <p style=""font-size:50px; font-weight:bold;""
                            >angry</p>
                            <div style=""width:240px; margin: auto;"">
                                <img src=""images/D16.png"" style= ""width:200px""alt=""img"">
                            </div>
                        </div>","-200","html-slider-response","61","297676","0.0-55.0","75ex0hgmnd","3","91021","","","0","","","","angry","images/D16.png"
"NaN","<div style=""width:500px;"">
                            <p style=""font-size:50px; font-weight:bold;""
                            >angry</p>
                            <div style=""width:240px; margin: auto;"">
                                <img src=""images/D19.png"" style= ""width:200px""alt=""img"">
                            </div>
                        </div>","102","html-slider-response","62","299940","0.0-56.0","75ex0hgmnd","3","91021","","","0","","","","angry","images/D19.png"
"NaN","<div style=""width:500px;"">
                            <p style=""font-size:50px; font-weight:bold;""
                            >angry</p>
                            <div style=""width:240px; margin: auto;"">
                                <img src=""images/D94.png"" style= ""width:200px""alt=""img"">
                            </div>
                        </div>","-200","html-slider-response","63","302342","0.0-57.0","75ex0hgmnd","3","91021","","","0","","","","angry","images/D94.png"
"NaN","<div style=""width:500px;"">
                            <p style=""font-size:50px; font-weight:bold;""
                            >angry</p>
                            <div style=""width:240px; margin: auto;"">
                                <img src=""images/D95.png"" style= ""width:200px""alt=""img"">
                            </div>
                        </div>","-200","html-slider-response","64","304624","0.0-58.0","75ex0hgmnd","3","91021","","","0","","","","angry","images/D95.png"
"NaN","<div style=""width:500px;"">
                            <p style=""font-size:50px; font-weight:bold;""
                            >angry</p>
                            <div style=""width:240px; margin: auto;"">
                                <img src=""images/D92.png"" style= ""width:200px""alt=""img"">
                            </div>
                        </div>","90","html-slider-response","65","307736","0.0-59.0","75ex0hgmnd","3","91021","","","0","","","","angry","images/D92.png"
"NaN","<div style=""width:500px;"">
                            <p style=""font-size:50px; font-weight:bold;""
                            >angry</p>
                            <div style=""width:240px; margin: auto;"">
                                <img src=""images/D105.png"" style= ""width:200px""alt=""img"">
                            </div>
                        </div>","-200","html-slider-response","66","309556","0.0-60.0","75ex0hgmnd","3","91021","","","0","","","","angry","images/D105.png"
"NaN","<div style=""width:500px;"">
                            <p style=""font-size:50px; font-weight:bold;""
                            >angry</p>
                            <div style=""width:240px; margin: auto;"">
                                <img src=""images/D49.png"" style= ""width:200px""alt=""img"">
                            </div>
                        </div>","-102","html-slider-response","67","312218","0.0-61.0","75ex0hgmnd","3","91021","","","0","","","","angry","images/D49.png"
"NaN","<div style=""width:500px;"">
                            <p style=""font-size:50px; font-weight:bold;""
                            >angry</p>
                            <div style=""width:240px; margin: auto;"">
                                <img src=""images/D74.png"" style= ""width:200px""alt=""img"">
                            </div>
                        </div>","-200","html-slider-response","68","314451","0.0-62.0","75ex0hgmnd","3","91021","","","0","","","","angry","images/D74.png"
"NaN","<div style=""width:500px;"">
                            <p style=""font-size:50px; font-weight:bold;""
                            >angry</p>
                            <div style=""width:240px; margin: auto;"">
                                <img src=""images/D55.png"" style= ""width:200px""alt=""img"">
                            </div>
                        </div>","43","html-slider-response","69","316286","0.0-63.0","75ex0hgmnd","3","91021","","","0","","","","angry","images/D55.png"
"NaN","<div style=""width:500px;"">
                            <p style=""font-size:50px; font-weight:bold;""
                            >angry</p>
                            <div style=""width:240px; margin: auto;"">
                                <img src=""images/D96.png"" style= ""width:200px""alt=""img"">
                            </div>
                        </div>","-200","html-slider-response","70","319256","0.0-64.0","75ex0hgmnd","3","91021","","","0","","","","angry","images/D96.png"
"NaN","<div style=""width:500px;"">
                            <p style=""font-size:50px; font-weight:bold;""
                            >angry</p>
                            <div style=""width:240px; margin: auto;"">
                                <img src=""images/D4.png"" style= ""width:200px""alt=""img"">
                            </div>
                        </div>","93","html-slider-response","71","320938","0.0-65.0","75ex0hgmnd","3","91021","","","0","","","","angry","images/D4.png"
"1022","<p>Great Job! You've finished block 1.<br></br> You have 4 block(s) left to go.<br></br></p>","0","html-button-response","72","322463","0.0-66.0","75ex0hgmnd","3","91021","","","","","","","",""
"NaN","<div style=""width:500px;"">
                            <p style=""font-size:50px; font-weight:bold;""
                            >angry</p>
                            <div style=""width:240px; margin: auto;"">
                                <img src=""images/D11.png"" style= ""width:200px""alt=""img"">
                            </div>
                        </div>","-107","html-slider-response","73","326600","0.0-67.0","75ex0hgmnd","3","91021","","","0","","","","angry","images/D11.png"
"NaN","<div style=""width:500px;"">
                            <p style=""font-size:50px; font-weight:bold;""
                            >disgust</p>
                            <div style=""width:240px; margin: auto;"">
                                <img src=""images/D94.png"" style= ""width:200px""alt=""img"">
                            </div>
                        </div>","-200","html-slider-response","74","330287","0.0-68.0","75ex0hgmnd","3","91021","","","0","","","","disgust","images/D94.png"
"NaN","<div style=""width:500px;"">
                            <p style=""font-size:50px; font-weight:bold;""
                            >disgust</p>
                            <div style=""width:240px; margin: auto;"">
                                <img src=""images/D49.png"" style= ""width:200px""alt=""img"">
                            </div>
                        </div>","-200","html-slider-response","75","332342","0.0-69.0","75ex0hgmnd","3","91021","","","0","","","","disgust","images/D49.png"
"NaN","<div style=""width:500px;"">
                            <p style=""font-size:50px; font-weight:bold;""
                            >disgust</p>
                            <div style=""width:240px; margin: auto;"">
                                <img src=""images/D79.png"" style= ""width:200px""alt=""img"">
                            </div>
                        </div>","-200","html-slider-response","76","334668","0.0-70.0","75ex0hgmnd","3","91021","","","0","","","","disgust","images/D79.png"
"NaN","<div style=""width:500px;"">
                            <p style=""font-size:50px; font-weight:bold;""
                            >angry</p>
                            <div style=""width:240px; margin: auto;"">
                                <img src=""images/D87.png"" style= ""width:200px""alt=""img"">
                            </div>
                        </div>","96","html-slider-response","77","337873","0.0-71.0","75ex0hgmnd","3","91021","","","0","","","","angry","images/D87.png"
"NaN","<div style=""width:500px;"">
                            <p style=""font-size:50px; font-weight:bold;""
                            >disgust</p>
                            <div style=""width:240px; margin: auto;"">
                                <img src=""images/D74.png"" style= ""width:200px""alt=""img"">
                            </div>
                        </div>","45","html-slider-response","78","340451","0.0-72.0","75ex0hgmnd","3","91021","","","0","","","","disgust","images/D74.png"
"NaN","<div style=""width:500px;"">
                            <p style=""font-size:50px; font-weight:bold;""
                            >angry</p>
                            <div style=""width:240px; margin: auto;"">
                                <img src=""images/D81.png"" style= ""width:200px""alt=""img"">
                            </div>
                        </div>","98","html-slider-response","79","344111","0.0-73.0","75ex0hgmnd","3","91021","","","0","","","","angry","images/D81.png"
"NaN","<div style=""width:500px;"">
                            <p style=""font-size:50px; font-weight:bold;""
                            >disgust</p>
                            <div style=""width:240px; margin: auto;"">
                                <img src=""images/D18.png"" style= ""width:200px""alt=""img"">
                            </div>
                        </div>","-200","html-slider-response","80","346549","0.0-74.0","75ex0hgmnd","3","91021","","","0","","","","disgust","images/D18.png"
"NaN","<div style=""width:500px;"">
                            <p style=""font-size:50px; font-weight:bold;""
                            >disgust</p>
                            <div style=""width:240px; margin: auto;"">
                                <img src=""images/D102.png"" style= ""width:200px""alt=""img"">
                            </div>
                        </div>","-200","html-slider-response","81","348377","0.0-75.0","75ex0hgmnd","3","91021","","","0","","","","disgust","images/D102.png"
"NaN","<div style=""width:500px;"">
                            <p style=""font-size:50px; font-weight:bold;""
                            >disgust</p>
                            <div style=""width:240px; margin: auto;"">
                                <img src=""images/D56.png"" style= ""width:200px""alt=""img"">
                            </div>
                        </div>","-200","html-slider-response","82","350203","0.0-76.0","75ex0hgmnd","3","91021","","","0","","","","disgust","images/D56.png"
"NaN","<div style=""width:500px;"">
                            <p style=""font-size:50px; font-weight:bold;""
                            >angry</p>
                            <div style=""width:240px; margin: auto;"">
                                <img src=""images/D104.png"" style= ""width:200px""alt=""img"">
                            </div>
                        </div>","98","html-slider-response","83","353499","0.0-77.0","75ex0hgmnd","3","91021","","","0","","","","angry","images/D104.png"
"NaN","<div style=""width:500px;"">
                            <p style=""font-size:50px; font-weight:bold;""
                            >disgust</p>
                            <div style=""width:240px; margin: auto;"">
                                <img src=""images/D52.png"" style= ""width:200px""alt=""img"">
                            </div>
                        </div>","102","html-slider-response","84","356515","0.0-78.0","75ex0hgmnd","3","91021","","","0","","","","disgust","images/D52.png"
"NaN","<div style=""width:500px;"">
                            <p style=""font-size:50px; font-weight:bold;""
                            >disgust</p>
                            <div style=""width:240px; margin: auto;"">
                                <img src=""images/D84.png"" style= ""width:200px""alt=""img"">
                            </div>
                        </div>","97","html-slider-response","85","359090","0.0-79.0","75ex0hgmnd","3","91021","","","0","","","","disgust","images/D84.png"
"NaN","<div style=""width:500px;"">
                            <p style=""font-size:50px; font-weight:bold;""
                            >angry</p>
                            <div style=""width:240px; margin: auto;"">
                                <img src=""images/D57.png"" style= ""width:200px""alt=""img"">
                            </div>
                        </div>","93","html-slider-response","86","364621","0.0-80.0","75ex0hgmnd","3","91021","","","0","","","","angry","images/D57.png"
"NaN","<div style=""width:500px;"">
                            <p style=""font-size:50px; font-weight:bold;""
                            >disgust</p>
                            <div style=""width:240px; margin: auto;"">
                                <img src=""images/D82.png"" style= ""width:200px""alt=""img"">
                            </div>
                        </div>","103","html-slider-response","87","366810","0.0-81.0","75ex0hgmnd","3","91021","","","0","","","","disgust","images/D82.png"
"NaN","<div style=""width:500px;"">
                            <p style=""font-size:50px; font-weight:bold;""
                            >disgust</p>
                            <div style=""width:240px; margin: auto;"">
                                <img src=""images/D4.png"" style= ""width:200px""alt=""img"">
                            </div>
                        </div>","102","html-slider-response","88","368867","0.0-82.0","75ex0hgmnd","3","91021","","","0","","","","disgust","images/D4.png"
"NaN","<div style=""width:500px;"">
                            <p style=""font-size:50px; font-weight:bold;""
                            >disgust</p>
                            <div style=""width:240px; margin: auto;"">
                                <img src=""images/D83.png"" style= ""width:200px""alt=""img"">
                            </div>
                        </div>","101","html-slider-response","89","371557","0.0-83.0","75ex0hgmnd","3","91021","","","0","","","","disgust","images/D83.png"
"NaN","<div style=""width:500px;"">
                            <p style=""font-size:50px; font-weight:bold;""
                            >angry</p>
                            <div style=""width:240px; margin: auto;"">
                                <img src=""images/D74.png"" style= ""width:200px""alt=""img"">
                            </div>
                        </div>","-106","html-slider-response","90","374415","0.0-84.0","75ex0hgmnd","3","91021","","","0","","","","angry","images/D74.png"
"NaN","<div style=""width:500px;"">
                            <p style=""font-size:50px; font-weight:bold;""
                            >angry</p>
                            <div style=""width:240px; margin: auto;"">
                                <img src=""images/D4.png"" style= ""width:200px""alt=""img"">
                            </div>
                        </div>","41","html-slider-response","91","376593","0.0-85.0","75ex0hgmnd","3","91021","","","0","","","","angry","images/D4.png"
"NaN","<div style=""width:500px;"">
                            <p style=""font-size:50px; font-weight:bold;""
                            >disgust</p>
                            <div style=""width:240px; margin: auto;"">
                                <img src=""images/D51.png"" style= ""width:200px""alt=""img"">
                            </div>
                        </div>","-200","html-slider-response","92","378637","0.0-86.0","75ex0hgmnd","3","91021","","","0","","","","disgust","images/D51.png"
"NaN","<div style=""width:500px;"">
                            <p style=""font-size:50px; font-weight:bold;""
                            >angry</p>
                            <div style=""width:240px; margin: auto;"">
                                <img src=""images/D53.png"" style= ""width:200px""alt=""img"">
                            </div>
                        </div>","46","html-slider-response","93","380705","0.0-87.0","75ex0hgmnd","3","91021","","","0","","","","angry","images/D53.png"
"NaN","<div style=""width:500px;"">
                            <p style=""font-size:50px; font-weight:bold;""
                            >angry</p>
                            <div style=""width:240px; margin: auto;"">
                                <img src=""images/D18.png"" style= ""width:200px""alt=""img"">
                            </div>
                        </div>","-200","html-slider-response","94","383035","0.0-88.0","75ex0hgmnd","3","91021","","","0","","","","angry","images/D18.png"
"NaN","<div style=""width:500px;"">
                            <p style=""font-size:50px; font-weight:bold;""
                            >disgust</p>
                            <div style=""width:240px; margin: auto;"">
                                <img src=""images/D66.png"" style= ""width:200px""alt=""img"">
                            </div>
                        </div>","38","html-slider-response","95","385874","0.0-89.0","75ex0hgmnd","3","91021","","","0","","","","disgust","images/D66.png"
"NaN","<div style=""width:500px;"">
                            <p style=""font-size:50px; font-weight:bold;""
                            >disgust</p>
                            <div style=""width:240px; margin: auto;"">
                                <img src=""images/D35.png"" style= ""width:200px""alt=""img"">
                            </div>
                        </div>","-200","html-slider-response","96","387679","0.0-90.0","75ex0hgmnd","3","91021","","","0","","","","disgust","images/D35.png"
"NaN","<div style=""width:500px;"">
                            <p style=""font-size:50px; font-weight:bold;""
                            >disgust</p>
                            <div style=""width:240px; margin: auto;"">
                                <img src=""images/D8.png"" style= ""width:200px""alt=""img"">
                            </div>
                        </div>","-200","html-slider-response","97","389366","0.0-91.0","75ex0hgmnd","3","91021","","","0","","","","disgust","images/D8.png"
"NaN","<div style=""width:500px;"">
                            <p style=""font-size:50px; font-weight:bold;""
                            >disgust</p>
                            <div style=""width:240px; margin: auto;"">
                                <img src=""images/D64.png"" style= ""width:200px""alt=""img"">
                            </div>
                        </div>","-200","html-slider-response","98","391532","0.0-92.0","75ex0hgmnd","3","91021","","","0","","","","disgust","images/D64.png"
"NaN","<div style=""width:500px;"">
                            <p style=""font-size:50px; font-weight:bold;""
                            >angry</p>
                            <div style=""width:240px; margin: auto;"">
                                <img src=""images/D96.png"" style= ""width:200px""alt=""img"">
                            </div>
                        </div>","-200","html-slider-response","99","393111","0.0-93.0","75ex0hgmnd","3","91021","","","0","","","","angry","images/D96.png"
"NaN","<div style=""width:500px;"">
                            <p style=""font-size:50px; font-weight:bold;""
                            >disgust</p>
                            <div style=""width:240px; margin: auto;"">
                                <img src=""images/D26.png"" style= ""width:200px""alt=""img"">
                            </div>
                        </div>","-200","html-slider-response","100","394682","0.0-94.0","75ex0hgmnd","3","91021","","","0","","","","disgust","images/D26.png"
"NaN","<div style=""width:500px;"">
                            <p style=""font-size:50px; font-weight:bold;""
                            >disgust</p>
                            <div style=""width:240px; margin: auto;"">
                                <img src=""images/D20.png"" style= ""width:200px""alt=""img"">
                            </div>
                        </div>","34","html-slider-response","101","396721","0.0-95.0","75ex0hgmnd","3","91021","","","0","","","","disgust","images/D20.png"
"NaN","<div style=""width:500px;"">
                            <p style=""font-size:50px; font-weight:bold;""
                            >disgust</p>
                            <div style=""width:240px; margin: auto;"">
                                <img src=""images/D85.png"" style= ""width:200px""alt=""img"">
                            </div>
                        </div>","-115","html-slider-response","102","399447","0.0-96.0","75ex0hgmnd","3","91021","","","0","","","","disgust","images/D85.png"
"NaN","<div style=""width:500px;"">
                            <p style=""font-size:50px; font-weight:bold;""
                            >disgust</p>
                            <div style=""width:240px; margin: auto;"">
                                <img src=""images/D36.png"" style= ""width:200px""alt=""img"">
                            </div>
                        </div>","-41","html-slider-response","103","401661","0.0-97.0","75ex0hgmnd","3","91021","","","0","","","","disgust","images/D36.png"
"NaN","<div style=""width:500px;"">
                            <p style=""font-size:50px; font-weight:bold;""
                            >angry</p>
                            <div style=""width:240px; margin: auto;"">
                                <img src=""images/D34.png"" style= ""width:200px""alt=""img"">
                            </div>
                        </div>","-66","html-slider-response","104","404102","0.0-98.0","75ex0hgmnd","3","91021","","","0","","","","angry","images/D34.png"
"NaN","<div style=""width:500px;"">
                            <p style=""font-size:50px; font-weight:bold;""
                            >disgust</p>
                            <div style=""width:240px; margin: auto;"">
                                <img src=""images/D22.png"" style= ""width:200px""alt=""img"">
                            </div>
                        </div>","-110","html-slider-response","105","406442","0.0-99.0","75ex0hgmnd","3","91021","","","0","","","","disgust","images/D22.png"
"NaN","<div style=""width:500px;"">
                            <p style=""font-size:50px; font-weight:bold;""
                            >angry</p>
                            <div style=""width:240px; margin: auto;"">
                                <img src=""images/D76.png"" style= ""width:200px""alt=""img"">
                            </div>
                        </div>","-118","html-slider-response","106","415713","0.0-100.0","75ex0hgmnd","3","91021","","","0","","","","angry","images/D76.png"
"NaN","<div style=""width:500px;"">
                            <p style=""font-size:50px; font-weight:bold;""
                            >angry</p>
                            <div style=""width:240px; margin: auto;"">
                                <img src=""images/D49.png"" style= ""width:200px""alt=""img"">
                            </div>
                        </div>","37","html-slider-response","107","418662","0.0-101.0","75ex0hgmnd","3","91021","","","0","","","","angry","images/D49.png"
"NaN","<div style=""width:500px;"">
                            <p style=""font-size:50px; font-weight:bold;""
                            >angry</p>
                            <div style=""width:240px; margin: auto;"">
                                <img src=""images/D111.png"" style= ""width:200px""alt=""img"">
                            </div>
                        </div>","43","html-slider-response","108","420476","0.0-102.0","75ex0hgmnd","3","91021","","","0","","","","angry","images/D111.png"
"NaN","<div style=""width:500px;"">
                            <p style=""font-size:50px; font-weight:bold;""
                            >angry</p>
                            <div style=""width:240px; margin: auto;"">
                                <img src=""images/D82.png"" style= ""width:200px""alt=""img"">
                            </div>
                        </div>","110","html-slider-response","109","422903","0.0-103.0","75ex0hgmnd","3","91021","","","0","","","","angry","images/D82.png"
"NaN","<div style=""width:500px;"">
                            <p style=""font-size:50px; font-weight:bold;""
                            >disgust</p>
                            <div style=""width:240px; margin: auto;"">
                                <img src=""images/D95.png"" style= ""width:200px""alt=""img"">
                            </div>
                        </div>","-2","html-slider-response","110","424307","0.0-104.0","75ex0hgmnd","3","91021","","","0","","","","disgust","images/D95.png"
"NaN","<div style=""width:500px;"">
                            <p style=""font-size:50px; font-weight:bold;""
                            >disgust</p>
                            <div style=""width:240px; margin: auto;"">
                                <img src=""images/D81.png"" style= ""width:200px""alt=""img"">
                            </div>
                        </div>","54","html-slider-response","111","426978","0.0-105.0","75ex0hgmnd","3","91021","","","0","","","","disgust","images/D81.png"
"NaN","<div style=""width:500px;"">
                            <p style=""font-size:50px; font-weight:bold;""
                            >disgust</p>
                            <div style=""width:240px; margin: auto;"">
                                <img src=""images/D47.png"" style= ""width:200px""alt=""img"">
                            </div>
                        </div>","-200","html-slider-response","112","428768","0.0-106.0","75ex0hgmnd","3","91021","","","0","","","","disgust","images/D47.png"
"NaN","<div style=""width:500px;"">
                            <p style=""font-size:50px; font-weight:bold;""
                            >angry</p>
                            <div style=""width:240px; margin: auto;"">
                                <img src=""images/D64.png"" style= ""width:200px""alt=""img"">
                            </div>
                        </div>","-200","html-slider-response","113","430822","0.0-107.0","75ex0hgmnd","3","91021","","","0","","","","angry","images/D64.png"
"NaN","<div style=""width:500px;"">
                            <p style=""font-size:50px; font-weight:bold;""
                            >disgust</p>
                            <div style=""width:240px; margin: auto;"">
                                <img src=""images/D34.png"" style= ""width:200px""alt=""img"">
                            </div>
                        </div>","-200","html-slider-response","114","432980","0.0-108.0","75ex0hgmnd","3","91021","","","0","","","","disgust","images/D34.png"
"NaN","<div style=""width:500px;"">
                            <p style=""font-size:50px; font-weight:bold;""
                            >angry</p>
                            <div style=""width:240px; margin: auto;"">
                                <img src=""images/D48.png"" style= ""width:200px""alt=""img"">
                            </div>
                        </div>","-200","html-slider-response","115","435105","0.0-109.0","75ex0hgmnd","3","91021","","","0","","","","angry","images/D48.png"
"NaN","<div style=""width:500px;"">
                            <p style=""font-size:50px; font-weight:bold;""
                            >angry</p>
                            <div style=""width:240px; margin: auto;"">
                                <img src=""images/D20.png"" style= ""width:200px""alt=""img"">
                            </div>
                        </div>","40","html-slider-response","116","437005","0.0-110.0","75ex0hgmnd","3","91021","","","0","","","","angry","images/D20.png"
"NaN","<div style=""width:500px;"">
                            <p style=""font-size:50px; font-weight:bold;""
                            >disgust</p>
                            <div style=""width:240px; margin: auto;"">
                                <img src=""images/D78.png"" style= ""width:200px""alt=""img"">
                            </div>
                        </div>","18","html-slider-response","117","439229","0.0-111.0","75ex0hgmnd","3","91021","","","0","","","","disgust","images/D78.png"
"NaN","<div style=""width:500px;"">
                            <p style=""font-size:50px; font-weight:bold;""
                            >angry</p>
                            <div style=""width:240px; margin: auto;"">
                                <img src=""images/D52.png"" style= ""width:200px""alt=""img"">
                            </div>
                        </div>","62","html-slider-response","118","441144","0.0-112.0","75ex0hgmnd","3","91021","","","0","","","","angry","images/D52.png"
"NaN","<div style=""width:500px;"">
                            <p style=""font-size:50px; font-weight:bold;""
                            >angry</p>
                            <div style=""width:240px; margin: auto;"">
                                <img src=""images/D17.png"" style= ""width:200px""alt=""img"">
                            </div>
                        </div>","-200","html-slider-response","119","443312","0.0-113.0","75ex0hgmnd","3","91021","","","0","","","","angry","images/D17.png"
"NaN","<div style=""width:500px;"">
                            <p style=""font-size:50px; font-weight:bold;""
                            >angry</p>
                            <div style=""width:240px; margin: auto;"">
                                <img src=""images/D65.png"" style= ""width:200px""alt=""img"">
                            </div>
                        </div>","-200","html-slider-response","120","444955","0.0-114.0","75ex0hgmnd","3","91021","","","0","","","","angry","images/D65.png"
"NaN","<div style=""width:500px;"">
                            <p style=""font-size:50px; font-weight:bold;""
                            >disgust</p>
                            <div style=""width:240px; margin: auto;"">
                                <img src=""images/D105.png"" style= ""width:200px""alt=""img"">
                            </div>
                        </div>","-194","html-slider-response","121","448232","0.0-115.0","75ex0hgmnd","3","91021","","","0","","","","disgust","images/D105.png"
"NaN","<div style=""width:500px;"">
                            <p style=""font-size:50px; font-weight:bold;""
                            >disgust</p>
                            <div style=""width:240px; margin: auto;"">
                                <img src=""images/D37.png"" style= ""width:200px""alt=""img"">
                            </div>
                        </div>","22","html-slider-response","122","450699","0.0-116.0","75ex0hgmnd","3","91021","","","0","","","","disgust","images/D37.png"
"NaN","<div style=""width:500px;"">
                            <p style=""font-size:50px; font-weight:bold;""
                            >disgust</p>
                            <div style=""width:240px; margin: auto;"">
                                <img src=""images/D55.png"" style= ""width:200px""alt=""img"">
                            </div>
                        </div>","-195","html-slider-response","123","452747","0.0-117.0","75ex0hgmnd","3","91021","","","0","","","","disgust","images/D55.png"
"NaN","<div style=""width:500px;"">
                            <p style=""font-size:50px; font-weight:bold;""
                            >disgust</p>
                            <div style=""width:240px; margin: auto;"">
                                <img src=""images/D25.png"" style= ""width:200px""alt=""img"">
                            </div>
                        </div>","-200","html-slider-response","124","454198","0.0-118.0","75ex0hgmnd","3","91021","","","0","","","","disgust","images/D25.png"
"NaN","<div style=""width:500px;"">
                            <p style=""font-size:50px; font-weight:bold;""
                            >angry</p>
                            <div style=""width:240px; margin: auto;"">
                                <img src=""images/D75.png"" style= ""width:200px""alt=""img"">
                            </div>
                        </div>","-118","html-slider-response","125","457200","0.0-119.0","75ex0hgmnd","3","91021","","","0","","","","angry","images/D75.png"
"NaN","<div style=""width:500px;"">
                            <p style=""font-size:50px; font-weight:bold;""
                            >angry</p>
                            <div style=""width:240px; margin: auto;"">
                                <img src=""images/D79.png"" style= ""width:200px""alt=""img"">
                            </div>
                        </div>","-192","html-slider-response","126","463874","0.0-120.0","75ex0hgmnd","3","91021","","","0","","","","angry","images/D79.png"
"NaN","<div style=""width:500px;"">
                            <p style=""font-size:50px; font-weight:bold;""
                            >disgust</p>
                            <div style=""width:240px; margin: auto;"">
                                <img src=""images/D96.png"" style= ""width:200px""alt=""img"">
                            </div>
                        </div>","-200","html-slider-response","127","465913","0.0-121.0","75ex0hgmnd","3","91021","","","0","","","","disgust","images/D96.png"
"NaN","<div style=""width:500px;"">
                            <p style=""font-size:50px; font-weight:bold;""
                            >angry</p>
                            <div style=""width:240px; margin: auto;"">
                                <img src=""images/D35.png"" style= ""width:200px""alt=""img"">
                            </div>
                        </div>","16","html-slider-response","128","468006","0.0-122.0","75ex0hgmnd","3","91021","","","0","","","","angry","images/D35.png"
"NaN","<div style=""width:500px;"">
                            <p style=""font-size:50px; font-weight:bold;""
                            >angry</p>
                            <div style=""width:240px; margin: auto;"">
                                <img src=""images/D103.png"" style= ""width:200px""alt=""img"">
                            </div>
                        </div>","94","html-slider-response","129","470397","0.0-123.0","75ex0hgmnd","3","91021","","","0","","","","angry","images/D103.png"
"NaN","<div style=""width:500px;"">
                            <p style=""font-size:50px; font-weight:bold;""
                            >angry</p>
                            <div style=""width:240px; margin: auto;"">
                                <img src=""images/D92.png"" style= ""width:200px""alt=""img"">
                            </div>
                        </div>","98","html-slider-response","130","472459","0.0-124.0","75ex0hgmnd","3","91021","","","0","","","","angry","images/D92.png"
"NaN","<div style=""width:500px;"">
                            <p style=""font-size:50px; font-weight:bold;""
                            >disgust</p>
                            <div style=""width:240px; margin: auto;"">
                                <img src=""images/D76.png"" style= ""width:200px""alt=""img"">
                            </div>
                        </div>","16","html-slider-response","131","475250","0.0-125.0","75ex0hgmnd","3","91021","","","0","","","","disgust","images/D76.png"
"NaN","<div style=""width:500px;"">
                            <p style=""font-size:50px; font-weight:bold;""
                            >disgust</p>
                            <div style=""width:240px; margin: auto;"">
                                <img src=""images/D92.png"" style= ""width:200px""alt=""img"">
                            </div>
                        </div>","53","html-slider-response","132","477295","0.0-126.0","75ex0hgmnd","3","91021","","","0","","","","disgust","images/D92.png"
"NaN","<div style=""width:500px;"">
                            <p style=""font-size:50px; font-weight:bold;""
                            >disgust</p>
                            <div style=""width:240px; margin: auto;"">
                                <img src=""images/D75.png"" style= ""width:200px""alt=""img"">
                            </div>
                        </div>","70","html-slider-response","133","479056","0.0-127.0","75ex0hgmnd","3","91021","","","0","","","","disgust","images/D75.png"
"NaN","<div style=""width:500px;"">
                            <p style=""font-size:50px; font-weight:bold;""
                            >angry</p>
                            <div style=""width:240px; margin: auto;"">
                                <img src=""images/D36.png"" style= ""width:200px""alt=""img"">
                            </div>
                        </div>","-200","html-slider-response","134","480807","0.0-128.0","75ex0hgmnd","3","91021","","","0","","","","angry","images/D36.png"
"NaN","<div style=""width:500px;"">
                            <p style=""font-size:50px; font-weight:bold;""
                            >disgust</p>
                            <div style=""width:240px; margin: auto;"">
                                <img src=""images/D16.png"" style= ""width:200px""alt=""img"">
                            </div>
                        </div>","-200","html-slider-response","135","482592","0.0-129.0","75ex0hgmnd","3","91021","","","0","","","","disgust","images/D16.png"
"NaN","<div style=""width:500px;"">
                            <p style=""font-size:50px; font-weight:bold;""
                            >angry</p>
                            <div style=""width:240px; margin: auto;"">
                                <img src=""images/D16.png"" style= ""width:200px""alt=""img"">
                            </div>
                        </div>","-200","html-slider-response","136","484046","0.0-130.0","75ex0hgmnd","3","91021","","","0","","","","angry","images/D16.png"
"NaN","<div style=""width:500px;"">
                            <p style=""font-size:50px; font-weight:bold;""
                            >angry</p>
                            <div style=""width:240px; margin: auto;"">
                                <img src=""images/D68.png"" style= ""width:200px""alt=""img"">
                            </div>
                        </div>","96","html-slider-response","137","486023","0.0-131.0","75ex0hgmnd","3","91021","","","0","","","","angry","images/D68.png"
"NaN","<div style=""width:500px;"">
                            <p style=""font-size:50px; font-weight:bold;""
                            >angry</p>
                            <div style=""width:240px; margin: auto;"">
                                <img src=""images/D51.png"" style= ""width:200px""alt=""img"">
                            </div>
                        </div>","-200","html-slider-response","138","487964","0.0-132.0","75ex0hgmnd","3","91021","","","0","","","","angry","images/D51.png"
"NaN","<div style=""width:500px;"">
                            <p style=""font-size:50px; font-weight:bold;""
                            >disgust</p>
                            <div style=""width:240px; margin: auto;"">
                                <img src=""images/D68.png"" style= ""width:200px""alt=""img"">
                            </div>
                        </div>","-200","html-slider-response","139","489898","0.0-133.0","75ex0hgmnd","3","91021","","","0","","","","disgust","images/D68.png"
"NaN","<div style=""width:500px;"">
                            <p style=""font-size:50px; font-weight:bold;""
                            >angry</p>
                            <div style=""width:240px; margin: auto;"">
                                <img src=""images/D102.png"" style= ""width:200px""alt=""img"">
                            </div>
                        </div>","-200","html-slider-response","140","491433","0.0-134.0","75ex0hgmnd","3","91021","","","0","","","","angry","images/D102.png"
"NaN","<div style=""width:500px;"">
                            <p style=""font-size:50px; font-weight:bold;""
                            >angry</p>
                            <div style=""width:240px; margin: auto;"">
                                <img src=""images/D84.png"" style= ""width:200px""alt=""img"">
                            </div>
                        </div>","42","html-slider-response","141","493060","0.0-135.0","75ex0hgmnd","3","91021","","","0","","","","angry","images/D84.png"
"NaN","<div style=""width:500px;"">
                            <p style=""font-size:50px; font-weight:bold;""
                            >disgust</p>
                            <div style=""width:240px; margin: auto;"">
                                <img src=""images/D87.png"" style= ""width:200px""alt=""img"">
                            </div>
                        </div>","54","html-slider-response","142","494554","0.0-136.0","75ex0hgmnd","3","91021","","","0","","","","disgust","images/D87.png"
"NaN","<div style=""width:500px;"">
                            <p style=""font-size:50px; font-weight:bold;""
                            >angry</p>
                            <div style=""width:240px; margin: auto;"">
                                <img src=""images/D95.png"" style= ""width:200px""alt=""img"">
                            </div>
                        </div>","-200","html-slider-response","143","496072","0.0-137.0","75ex0hgmnd","3","91021","","","0","","","","angry","images/D95.png"
"NaN","<div style=""width:500px;"">
                            <p style=""font-size:50px; font-weight:bold;""
                            >angry</p>
                            <div style=""width:240px; margin: auto;"">
                                <img src=""images/D47.png"" style= ""width:200px""alt=""img"">
                            </div>
                        </div>","-200","html-slider-response","144","497604","0.0-138.0","75ex0hgmnd","3","91021","","","0","","","","angry","images/D47.png"
"NaN","<div style=""width:500px;"">
                            <p style=""font-size:50px; font-weight:bold;""
                            >disgust</p>
                            <div style=""width:240px; margin: auto;"">
                                <img src=""images/D11.png"" style= ""width:200px""alt=""img"">
                            </div>
                        </div>","-200","html-slider-response","145","499062","0.0-139.0","75ex0hgmnd","3","91021","","","0","","","","disgust","images/D11.png"
"NaN","<div style=""width:500px;"">
                            <p style=""font-size:50px; font-weight:bold;""
                            >angry</p>
                            <div style=""width:240px; margin: auto;"">
                                <img src=""images/D56.png"" style= ""width:200px""alt=""img"">
                            </div>
                        </div>","-200","html-slider-response","146","500472","0.0-140.0","75ex0hgmnd","3","91021","","","0","","","","angry","images/D56.png"
"NaN","<div style=""width:500px;"">
                            <p style=""font-size:50px; font-weight:bold;""
                            >angry</p>
                            <div style=""width:240px; margin: auto;"">
                                <img src=""images/D1.png"" style= ""width:200px""alt=""img"">
                            </div>
                        </div>","-200","html-slider-response","147","502139","0.0-141.0","75ex0hgmnd","3","91021","","","0","","","","angry","images/D1.png"
"NaN","<div style=""width:500px;"">
                            <p style=""font-size:50px; font-weight:bold;""
                            >angry</p>
                            <div style=""width:240px; margin: auto;"">
                                <img src=""images/D66.png"" style= ""width:200px""alt=""img"">
                            </div>
                        </div>","21","html-slider-response","148","503921","0.0-142.0","75ex0hgmnd","3","91021","","","0","","","","angry","images/D66.png"
"NaN","<div style=""width:500px;"">
                            <p style=""font-size:50px; font-weight:bold;""
                            >disgust</p>
                            <div style=""width:240px; margin: auto;"">
                                <img src=""images/D101.png"" style= ""width:200px""alt=""img"">
                            </div>
                        </div>","-200","html-slider-response","149","505733","0.0-143.0","75ex0hgmnd","3","91021","","","0","","","","disgust","images/D101.png"
"NaN","<div style=""width:500px;"">
                            <p style=""font-size:50px; font-weight:bold;""
                            >angry</p>
                            <div style=""width:240px; margin: auto;"">
                                <img src=""images/D26.png"" style= ""width:200px""alt=""img"">
                            </div>
                        </div>","-200","html-slider-response","150","507255","0.0-144.0","75ex0hgmnd","3","91021","","","0","","","","angry","images/D26.png"
"NaN","<div style=""width:500px;"">
                            <p style=""font-size:50px; font-weight:bold;""
                            >angry</p>
                            <div style=""width:240px; margin: auto;"">
                                <img src=""images/D101.png"" style= ""width:200px""alt=""img"">
                            </div>
                        </div>","-200","html-slider-response","151","508938","0.0-145.0","75ex0hgmnd","3","91021","","","0","","","","angry","images/D101.png"
"NaN","<div style=""width:500px;"">
                            <p style=""font-size:50px; font-weight:bold;""
                            >disgust</p>
                            <div style=""width:240px; margin: auto;"">
                                <img src=""images/D53.png"" style= ""width:200px""alt=""img"">
                            </div>
                        </div>","16","html-slider-response","152","511788","0.0-146.0","75ex0hgmnd","3","91021","","","0","","","","disgust","images/D53.png"
"NaN","<div style=""width:500px;"">
                            <p style=""font-size:50px; font-weight:bold;""
                            >angry</p>
                            <div style=""width:240px; margin: auto;"">
                                <img src=""images/D46.png"" style= ""width:200px""alt=""img"">
                            </div>
                        </div>","-200","html-slider-response","153","513366","0.0-147.0","75ex0hgmnd","3","91021","","","0","","","","angry","images/D46.png"
"NaN","<div style=""width:500px;"">
                            <p style=""font-size:50px; font-weight:bold;""
                            >disgust</p>
                            <div style=""width:240px; margin: auto;"">
                                <img src=""images/D65.png"" style= ""width:200px""alt=""img"">
                            </div>
                        </div>","-200","html-slider-response","154","514935","0.0-148.0","75ex0hgmnd","3","91021","","","0","","","","disgust","images/D65.png"
"NaN","<div style=""width:500px;"">
                            <p style=""font-size:50px; font-weight:bold;""
                            >disgust</p>
                            <div style=""width:240px; margin: auto;"">
                                <img src=""images/D104.png"" style= ""width:200px""alt=""img"">
                            </div>
                        </div>","100","html-slider-response","155","516612","0.0-149.0","75ex0hgmnd","3","91021","","","0","","","","disgust","images/D104.png"
"NaN","<div style=""width:500px;"">
                            <p style=""font-size:50px; font-weight:bold;""
                            >disgust</p>
                            <div style=""width:240px; margin: auto;"">
                                <img src=""images/D111.png"" style= ""width:200px""alt=""img"">
                            </div>
                        </div>","80","html-slider-response","156","518400","0.0-150.0","75ex0hgmnd","3","91021","","","0","","","","disgust","images/D111.png"
"NaN","<div style=""width:500px;"">
                            <p style=""font-size:50px; font-weight:bold;""
                            >angry</p>
                            <div style=""width:240px; margin: auto;"">
                                <img src=""images/D37.png"" style= ""width:200px""alt=""img"">
                            </div>
                        </div>","-200","html-slider-response","157","520596","0.0-151.0","75ex0hgmnd","3","91021","","","0","","","","angry","images/D37.png"
"NaN","<div style=""width:500px;"">
                            <p style=""font-size:50px; font-weight:bold;""
                            >disgust</p>
                            <div style=""width:240px; margin: auto;"">
                                <img src=""images/D14.png"" style= ""width:200px""alt=""img"">
                            </div>
                        </div>","26","html-slider-response","158","523281","0.0-152.0","75ex0hgmnd","3","91021","","","0","","","","disgust","images/D14.png"
"NaN","<div style=""width:500px;"">
                            <p style=""font-size:50px; font-weight:bold;""
                            >angry</p>
                            <div style=""width:240px; margin: auto;"">
                                <img src=""images/D8.png"" style= ""width:200px""alt=""img"">
                            </div>
                        </div>","-200","html-slider-response","159","525297","0.0-153.0","75ex0hgmnd","3","91021","","","0","","","","angry","images/D8.png"
"NaN","<div style=""width:500px;"">
                            <p style=""font-size:50px; font-weight:bold;""
                            >angry</p>
                            <div style=""width:240px; margin: auto;"">
                                <img src=""images/D19.png"" style= ""width:200px""alt=""img"">
                            </div>
                        </div>","102","html-slider-response","160","527015","0.0-154.0","75ex0hgmnd","3","91021","","","0","","","","angry","images/D19.png"
"NaN","<div style=""width:500px;"">
                            <p style=""font-size:50px; font-weight:bold;""
                            >angry</p>
                            <div style=""width:240px; margin: auto;"">
                                <img src=""images/D55.png"" style= ""width:200px""alt=""img"">
                            </div>
                        </div>","35","html-slider-response","161","529328","0.0-155.0","75ex0hgmnd","3","91021","","","0","","","","angry","images/D55.png"
"NaN","<div style=""width:500px;"">
                            <p style=""font-size:50px; font-weight:bold;""
                            >angry</p>
                            <div style=""width:240px; margin: auto;"">
                                <img src=""images/D105.png"" style= ""width:200px""alt=""img"">
                            </div>
                        </div>","-200","html-slider-response","162","530780","0.0-156.0","75ex0hgmnd","3","91021","","","0","","","","angry","images/D105.png"
"NaN","<div style=""width:500px;"">
                            <p style=""font-size:50px; font-weight:bold;""
                            >angry</p>
                            <div style=""width:240px; margin: auto;"">
                                <img src=""images/D94.png"" style= ""width:200px""alt=""img"">
                            </div>
                        </div>","-200","html-slider-response","163","532268","0.0-157.0","75ex0hgmnd","3","91021","","","0","","","","angry","images/D94.png"
"NaN","<div style=""width:500px;"">
                            <p style=""font-size:50px; font-weight:bold;""
                            >disgust</p>
                            <div style=""width:240px; margin: auto;"">
                                <img src=""images/D48.png"" style= ""width:200px""alt=""img"">
                            </div>
                        </div>","88","html-slider-response","164","533951","0.0-158.0","75ex0hgmnd","3","91021","","","0","","","","disgust","images/D48.png"
"NaN","<div style=""width:500px;"">
                            <p style=""font-size:50px; font-weight:bold;""
                            >disgust</p>
                            <div style=""width:240px; margin: auto;"">
                                <img src=""images/D17.png"" style= ""width:200px""alt=""img"">
                            </div>
                        </div>","10","html-slider-response","165","536330","0.0-159.0","75ex0hgmnd","3","91021","","","0","","","","disgust","images/D17.png"
"NaN","<div style=""width:500px;"">
                            <p style=""font-size:50px; font-weight:bold;""
                            >angry</p>
                            <div style=""width:240px; margin: auto;"">
                                <img src=""images/D85.png"" style= ""width:200px""alt=""img"">
                            </div>
                        </div>","-20","html-slider-response","166","539093","0.0-160.0","75ex0hgmnd","3","91021","","","0","","","","angry","images/D85.png"
"NaN","<div style=""width:500px;"">
                            <p style=""font-size:50px; font-weight:bold;""
                            >angry</p>
                            <div style=""width:240px; margin: auto;"">
                                <img src=""images/D22.png"" style= ""width:200px""alt=""img"">
                            </div>
                        </div>","62","html-slider-response","167","541087","0.0-161.0","75ex0hgmnd","3","91021","","","0","","","","angry","images/D22.png"
"NaN","<div style=""width:500px;"">
                            <p style=""font-size:50px; font-weight:bold;""
                            >angry</p>
                            <div style=""width:240px; margin: auto;"">
                                <img src=""images/D77.png"" style= ""width:200px""alt=""img"">
                            </div>
                        </div>","94","html-slider-response","168","543189","0.0-162.0","75ex0hgmnd","3","91021","","","0","","","","angry","images/D77.png"
"NaN","<div style=""width:500px;"">
                            <p style=""font-size:50px; font-weight:bold;""
                            >disgust</p>
                            <div style=""width:240px; margin: auto;"">
