"rt","stimulus","response","trial_type","trial_index","time_elapsed","internal_node_id","subject_id","condition_num","sona_id","success","question_order","slider_start","practiceTrial","practiceTrialNum","correct","concept","texture_id"
"2349","Welcome to our experiment!<p>At the bottom of this screen, you will see a button that says ""Begin Experiment"".<br>Please only click that button when you are ready to complete the 30 minute experiment in one sitting.</p><p> Once you click that button, it will not be possible to restart the experiment.","0","html-button-response","0","2353","0.0-0.0","cukv0j3a02","10","90554","","","","","","","",""
"1119","","","fullscreen","1","4476","0.0-1.0","cukv0j3a02","10","90554","true","","","","","","",""
"15697","","{""Consent"":[""<strong>I consent</strong>""]}","survey-multi-select","2","20178","0.0-2.0","cukv0j3a02","10","90554","","[0]","","","","","",""
"2038","Welcome! <p> This experiment involves two parts: demographic information, followed by the experimental task.<p> It will take about 30 minutes to complete both parts.","0","html-button-response","3","22220","0.0-3.0","cukv0j3a02","10","90554","","","","","","","",""
"10241","","{""Age"":""18"",""Gender"":""female"",""Race/ethnicity"":""white"",""Languages"":""English""}","survey-text","4","32473","0.0-4.0","cukv0j3a02","10","90554","","","","","","","",""
"27195","
                        <div style=""height:720px;"">
                            <div style='text-align:left; font-size:18px; line-height:25px; width: 1200px;'>
                                During this experiment you will be presented with a series of concepts, one at a time, from the set below:                             </div>

                            <div style=""text-align: left; width: 1200px;"">
                                <p style=""font-size:18px; line-height:20px; text-align:center; font-weight:bold "">blizzard,
                                    drought, hurricane, lightning, sandstorm
                                <p style=""font-size:18px; line-height:18px;""></p>
                            </div>
                            <div style='text-align:left; font-size:18px; line-height:25px; width: 1200px;'>
                                For each concept, you will be asked to rate how much you associate it with each of the visual textures
                                below on a scale from 'not at all' to 'very much'.                            </div>
                            <div style=""display: flex; justify-content: center; width: 90%;"">
                                <div style=""text-align: center; width: 1000px; display: grid; grid-template-columns: repeat(13, .5fr); gap: 5px; padding: 5px; margin: 0 auto;"">
                                    
                                    <div style=""width: 95%; aspect-ratio: 1;"">
                                        <img src=""images/D1.png"" style=""width: 100%; height: 100%; object-fit: cover;"">
                                    </div>
                                    
                                    <div style=""width: 95%; aspect-ratio: 1;"">
                                        <img src=""images/D4.png"" style=""width: 100%; height: 100%; object-fit: cover;"">
                                    </div>
                                    
                                    <div style=""width: 95%; aspect-ratio: 1;"">
                                        <img src=""images/D8.png"" style=""width: 100%; height: 100%; object-fit: cover;"">
                                    </div>
                                    
                                    <div style=""width: 95%; aspect-ratio: 1;"">
                                        <img src=""images/D11.png"" style=""width: 100%; height: 100%; object-fit: cover;"">
                                    </div>
                                    
                                    <div style=""width: 95%; aspect-ratio: 1;"">
                                        <img src=""images/D14.png"" style=""width: 100%; height: 100%; object-fit: cover;"">
                                    </div>
                                    
                                    <div style=""width: 95%; aspect-ratio: 1;"">
                                        <img src=""images/D16.png"" style=""width: 100%; height: 100%; object-fit: cover;"">
                                    </div>
                                    
                                    <div style=""width: 95%; aspect-ratio: 1;"">
                                        <img src=""images/D17.png"" style=""width: 100%; height: 100%; object-fit: cover;"">
                                    </div>
                                    
                                    <div style=""width: 95%; aspect-ratio: 1;"">
                                        <img src=""images/D18.png"" style=""width: 100%; height: 100%; object-fit: cover;"">
                                    </div>
                                    
                                    <div style=""width: 95%; aspect-ratio: 1;"">
                                        <img src=""images/D19.png"" style=""width: 100%; height: 100%; object-fit: cover;"">
                                    </div>
                                    
                                    <div style=""width: 95%; aspect-ratio: 1;"">
                                        <img src=""images/D20.png"" style=""width: 100%; height: 100%; object-fit: cover;"">
                                    </div>
                                    
                                    <div style=""width: 95%; aspect-ratio: 1;"">
                                        <img src=""images/D22.png"" style=""width: 100%; height: 100%; object-fit: cover;"">
                                    </div>
                                    
                                    <div style=""width: 95%; aspect-ratio: 1;"">
                                        <img src=""images/D25.png"" style=""width: 100%; height: 100%; object-fit: cover;"">
                                    </div>
                                    
                                    <div style=""width: 95%; aspect-ratio: 1;"">
                                        <img src=""images/D26.png"" style=""width: 100%; height: 100%; object-fit: cover;"">
                                    </div>
                                    
                                    <div style=""width: 95%; aspect-ratio: 1;"">
                                        <img src=""images/D34.png"" style=""width: 100%; height: 100%; object-fit: cover;"">
                                    </div>
                                    
                                    <div style=""width: 95%; aspect-ratio: 1;"">
                                        <img src=""images/D35.png"" style=""width: 100%; height: 100%; object-fit: cover;"">
                                    </div>
                                    
                                    <div style=""width: 95%; aspect-ratio: 1;"">
                                        <img src=""images/D36.png"" style=""width: 100%; height: 100%; object-fit: cover;"">
                                    </div>
                                    
                                    <div style=""width: 95%; aspect-ratio: 1;"">
                                        <img src=""images/D37.png"" style=""width: 100%; height: 100%; object-fit: cover;"">
                                    </div>
                                    
                                    <div style=""width: 95%; aspect-ratio: 1;"">
                                        <img src=""images/D46.png"" style=""width: 100%; height: 100%; object-fit: cover;"">
                                    </div>
                                    
                                    <div style=""width: 95%; aspect-ratio: 1;"">
                                        <img src=""images/D47.png"" style=""width: 100%; height: 100%; object-fit: cover;"">
                                    </div>
                                    
                                    <div style=""width: 95%; aspect-ratio: 1;"">
                                        <img src=""images/D48.png"" style=""width: 100%; height: 100%; object-fit: cover;"">
                                    </div>
                                    
                                    <div style=""width: 95%; aspect-ratio: 1;"">
                                        <img src=""images/D49.png"" style=""width: 100%; height: 100%; object-fit: cover;"">
                                    </div>
                                    
                                    <div style=""width: 95%; aspect-ratio: 1;"">
                                        <img src=""images/D51.png"" style=""width: 100%; height: 100%; object-fit: cover;"">
                                    </div>
                                    
                                    <div style=""width: 95%; aspect-ratio: 1;"">
                                        <img src=""images/D52.png"" style=""width: 100%; height: 100%; object-fit: cover;"">
                                    </div>
                                    
                                    <div style=""width: 95%; aspect-ratio: 1;"">
                                        <img src=""images/D53.png"" style=""width: 100%; height: 100%; object-fit: cover;"">
                                    </div>
                                    
                                    <div style=""width: 95%; aspect-ratio: 1;"">
                                        <img src=""images/D55.png"" style=""width: 100%; height: 100%; object-fit: cover;"">
                                    </div>
                                    
                                    <div style=""width: 95%; aspect-ratio: 1;"">
                                        <img src=""images/D56.png"" style=""width: 100%; height: 100%; object-fit: cover;"">
                                    </div>
                                    
                                    <div style=""width: 95%; aspect-ratio: 1;"">
                                        <img src=""images/D57.png"" style=""width: 100%; height: 100%; object-fit: cover;"">
                                    </div>
                                    
                                    <div style=""width: 95%; aspect-ratio: 1;"">
                                        <img src=""images/D64.png"" style=""width: 100%; height: 100%; object-fit: cover;"">
                                    </div>
                                    
                                    <div style=""width: 95%; aspect-ratio: 1;"">
                                        <img src=""images/D65.png"" style=""width: 100%; height: 100%; object-fit: cover;"">
                                    </div>
                                    
                                    <div style=""width: 95%; aspect-ratio: 1;"">
                                        <img src=""images/D66.png"" style=""width: 100%; height: 100%; object-fit: cover;"">
                                    </div>
                                    
                                    <div style=""width: 95%; aspect-ratio: 1;"">
                                        <img src=""images/D68.png"" style=""width: 100%; height: 100%; object-fit: cover;"">
                                    </div>
                                    
                                    <div style=""width: 95%; aspect-ratio: 1;"">
                                        <img src=""images/D74.png"" style=""width: 100%; height: 100%; object-fit: cover;"">
                                    </div>
                                    
                                    <div style=""width: 95%; aspect-ratio: 1;"">
                                        <img src=""images/D75.png"" style=""width: 100%; height: 100%; object-fit: cover;"">
                                    </div>
                                    
                                    <div style=""width: 95%; aspect-ratio: 1;"">
                                        <img src=""images/D76.png"" style=""width: 100%; height: 100%; object-fit: cover;"">
                                    </div>
                                    
                                    <div style=""width: 95%; aspect-ratio: 1;"">
                                        <img src=""images/D77.png"" style=""width: 100%; height: 100%; object-fit: cover;"">
                                    </div>
                                    
                                    <div style=""width: 95%; aspect-ratio: 1;"">
                                        <img src=""images/D78.png"" style=""width: 100%; height: 100%; object-fit: cover;"">
                                    </div>
                                    
                                    <div style=""width: 95%; aspect-ratio: 1;"">
                                        <img src=""images/D79.png"" style=""width: 100%; height: 100%; object-fit: cover;"">
                                    </div>
                                    
                                    <div style=""width: 95%; aspect-ratio: 1;"">
                                        <img src=""images/D81.png"" style=""width: 100%; height: 100%; object-fit: cover;"">
                                    </div>
                                    
                                    <div style=""width: 95%; aspect-ratio: 1;"">
                                        <img src=""images/D82.png"" style=""width: 100%; height: 100%; object-fit: cover;"">
                                    </div>
                                    
                                    <div style=""width: 95%; aspect-ratio: 1;"">
                                        <img src=""images/D83.png"" style=""width: 100%; height: 100%; object-fit: cover;"">
                                    </div>
                                    
                                    <div style=""width: 95%; aspect-ratio: 1;"">
                                        <img src=""images/D84.png"" style=""width: 100%; height: 100%; object-fit: cover;"">
                                    </div>
                                    
                                    <div style=""width: 95%; aspect-ratio: 1;"">
                                        <img src=""images/D85.png"" style=""width: 100%; height: 100%; object-fit: cover;"">
                                    </div>
                                    
                                    <div style=""width: 95%; aspect-ratio: 1;"">
                                        <img src=""images/D87.png"" style=""width: 100%; height: 100%; object-fit: cover;"">
                                    </div>
                                    
                                    <div style=""width: 95%; aspect-ratio: 1;"">
                                        <img src=""images/D92.png"" style=""width: 100%; height: 100%; object-fit: cover;"">
                                    </div>
                                    
                                    <div style=""width: 95%; aspect-ratio: 1;"">
                                        <img src=""images/D94.png"" style=""width: 100%; height: 100%; object-fit: cover;"">
                                    </div>
                                    
                                    <div style=""width: 95%; aspect-ratio: 1;"">
                                        <img src=""images/D95.png"" style=""width: 100%; height: 100%; object-fit: cover;"">
                                    </div>
                                    
                                    <div style=""width: 95%; aspect-ratio: 1;"">
                                        <img src=""images/D96.png"" style=""width: 100%; height: 100%; object-fit: cover;"">
                                    </div>
                                    
                                    <div style=""width: 95%; aspect-ratio: 1;"">
                                        <img src=""images/D101.png"" style=""width: 100%; height: 100%; object-fit: cover;"">
                                    </div>
                                    
                                    <div style=""width: 95%; aspect-ratio: 1;"">
                                        <img src=""images/D102.png"" style=""width: 100%; height: 100%; object-fit: cover;"">
                                    </div>
                                    
                                    <div style=""width: 95%; aspect-ratio: 1;"">
                                        <img src=""images/D103.png"" style=""width: 100%; height: 100%; object-fit: cover;"">
                                    </div>
                                    
                                    <div style=""width: 95%; aspect-ratio: 1;"">
                                        <img src=""images/D104.png"" style=""width: 100%; height: 100%; object-fit: cover;"">
                                    </div>
                                    
                                    <div style=""width: 95%; aspect-ratio: 1;"">
                                        <img src=""images/D105.png"" style=""width: 100%; height: 100%; object-fit: cover;"">
                                    </div>
                                    
                                </div>
                            </div>
                            <br>
                            <div style='text-align:left; font-size:18px; line-height:25px; width: 1200px;'>
                                Each trial will include one concept word and one visual texture. You will be asked to make your rating by
                                sliding the cursor along a slider response scale.<br>                                Before beginning, please look at the list of concepts and textures.                                 For each concept, think about the texture you associate least with it.                                When you see that texture paired with that concept please click on the left endpoint of the scale near 'not at
                                all'.                                Now, please think about the texture you associate most with it.                                When you see that texture paired with that concept please click on the right endpoint of the scale near 'very
                                much'. <br><br>                                Please use the full range of the scale.                                That is, if you believe a concept is somewhat associated with a texture, you would click at the midpoint of the
                                scale.                                You will be asked to rate each texture for a given concept before moving on to the next.<br>Press the 'Continue'
                                button for instructions on how to use the slider.

                            </div>
                            <!-- Centered text paragraphs -->

                        </div>
                         ","157","html-slider-response","5","59672","0.0-5.0","cukv0j3a02","10","90554","","","0","true","","","",""
"2819","<div style=""width:800px;""><p style=""text-align:left"">To move the slider, click and drag your cursor to the location of the scale where you would like to make your rating and then let go. When you let go of the slider, your response will be recorded and the next trial will begin. <br>
                    We are interested in your initial impressions of each concept for a given scale, so please go with your first intuition. <br>
                    Before you begin the experiment, there will be four training trials for you to practice using the slider. <br>
                     When you are ready to start the training trials, please click ""Continue"".</p><br></div>","0","html-button-response","6","62494","0.0-6.0","cukv0j3a02","10","90554","","","","","","","",""
"NaN","<div style=""width:500px;"">
                                    <p style=""font-size:25px;"">Please move the slider all the way to the <br> right endpoint of the scale</p>

                                    </div>
                                </div>","200","html-slider-response","7","64072","0.0-7.0-0.0","cukv0j3a02","10","90554","","","0","true","0","true","",""
"873","<p align='center'><b>Good job!</b> Click on 'Continue' to proceed.</p>","0","html-button-response","8","65446","0.0-7.0-1.0","cukv0j3a02","10","90554","","","","","","","",""
"NaN","<div style=""width:500px;"">
                                    <p style=""font-size:25px;"">Please move the slider all the way to the <br> left endpoint of the scale</p>

                                    </div>
                                </div>","-200","html-slider-response","9","66894","0.0-8.0-0.0","cukv0j3a02","10","90554","","","0","true","1","true","",""
"864","<p align='center'><b>Good job!</b> Click on 'Continue' to proceed.</p>","0","html-button-response","10","68260","0.0-8.0-1.0","cukv0j3a02","10","90554","","","","","","","",""
"NaN","<div style=""width:500px;"">
                                    <p style=""font-size:25px;"">Please move the slider halfway between the center and right endpoint of the scale</p>

                                    </div>
                                </div>","2","html-slider-response","11","69750","0.0-9.0-0.0","cukv0j3a02","10","90554","","","0","true","2","false","",""
"1834","<p align='center'><b>Not quite!</b> The slider was not placed near the instructed located. Click on 'Continue' to try again. </p>","0","html-button-response","12","72086","0.0-9.0-1.0","cukv0j3a02","10","90554","","","","","","","",""
"NaN","<div style=""width:500px;"">
                                    <p style=""font-size:25px;"">Please move the slider halfway between the center and right endpoint of the scale</p>

                                    </div>
                                </div>","2","html-slider-response","13","73130","0.0-9.1-0.1","cukv0j3a02","10","90554","","","0","true","2","false","",""
"681","<p align='center'><b>Not quite!</b> The slider was not placed near the instructed located. Click on 'Continue' to try again. </p>","0","html-button-response","14","74313","0.0-9.1-1.1","cukv0j3a02","10","90554","","","","","","","",""
"NaN","<div style=""width:500px;"">
                                    <p style=""font-size:25px;"">Please move the slider halfway between the center and right endpoint of the scale</p>

                                    </div>
                                </div>","4","html-slider-response","15","75104","0.0-9.2-0.2","cukv0j3a02","10","90554","","","0","true","2","false","",""
"376","<p align='center'><b>Not quite!</b> The slider was not placed near the instructed located. Click on 'Continue' to try again. </p>","0","html-button-response","16","75982","0.0-9.2-1.2","cukv0j3a02","10","90554","","","","","","","",""
"NaN","<div style=""width:500px;"">
                                    <p style=""font-size:25px;"">Please move the slider halfway between the center and right endpoint of the scale</p>

                                    </div>
                                </div>","-2","html-slider-response","17","76924","0.0-9.3-0.3","cukv0j3a02","10","90554","","","0","true","2","false","",""
"1523","<p align='center'><b>Not quite!</b> The slider was not placed near the instructed located. Click on 'Continue' to try again. </p>","0","html-button-response","18","78949","0.0-9.3-1.3","cukv0j3a02","10","90554","","","","","","","",""
"NaN","<div style=""width:500px;"">
                                    <p style=""font-size:25px;"">Please move the slider halfway between the center and right endpoint of the scale</p>

                                    </div>
                                </div>","111","html-slider-response","19","82650","0.0-9.4-0.4","cukv0j3a02","10","90554","","","0","true","2","false","",""
"1054","<p align='center'><b>Not quite!</b> The slider was not placed near the instructed located. Click on 'Continue' to try again. </p>","0","html-button-response","20","84206","0.0-9.4-1.4","cukv0j3a02","10","90554","","","","","","","",""
"NaN","<div style=""width:500px;"">
                                    <p style=""font-size:25px;"">Please move the slider halfway between the center and right endpoint of the scale</p>

                                    </div>
                                </div>","102","html-slider-response","21","89696","0.0-9.5-0.5","cukv0j3a02","10","90554","","","0","true","2","true","",""
"847","<p align='center'><b>Good job!</b> Click on 'Continue' to proceed.</p>","0","html-button-response","22","91046","0.0-9.5-1.5","cukv0j3a02","10","90554","","","","","","","",""
"NaN","<div style=""width:500px;"">
                                    <p style=""font-size:25px;"">Please move the slider halfway between the center and left endpoint of the scale</p>

                                    </div>
                                </div>","-98","html-slider-response","23","93744","0.0-10.0-0.0","cukv0j3a02","10","90554","","","0","true","3","true","",""
"704","<p align='center'><b>Good job!</b> Click on 'Continue' to proceed.</p>","0","html-button-response","24","94951","0.0-10.0-1.0","cukv0j3a02","10","90554","","","","","","","",""
"2228","<p>Great job! You've completed the practice trials. Now you will begin the main task.</p>","0","html-button-response","25","97180","0.0-11.0","cukv0j3a02","10","90554","","","","","","","",""
"2273","<p>In this block of trials, you will be asked to rate how much you associate each texture with the concept</p > <p style = 'font-size:150%; font-weight: bold'>blizzard</p><br></br>","0","html-button-response","26","99454","0.0-12.0","cukv0j3a02","10","90554","","","","","","","",""
"NaN","<div style=""width:500px;"">
                            <p style=""font-size:50px; font-weight:bold;""
                            >blizzard</p>
                            <div style=""width:240px; margin: auto;"">
                                <img src=""images/D4.png"" style= ""width:200px""alt=""img"">
                            </div>
                        </div>","-200","html-slider-response","27","101819","0.0-13.0","cukv0j3a02","10","90554","","","0","","","","blizzard","images/D4.png"
"NaN","<div style=""width:500px;"">
                            <p style=""font-size:50px; font-weight:bold;""
                            >blizzard</p>
                            <div style=""width:240px; margin: auto;"">
                                <img src=""images/D25.png"" style= ""width:200px""alt=""img"">
                            </div>
                        </div>","-161","html-slider-response","28","103583","0.0-14.0","cukv0j3a02","10","90554","","","0","","","","blizzard","images/D25.png"
"NaN","<div style=""width:500px;"">
                            <p style=""font-size:50px; font-weight:bold;""
                            >blizzard</p>
                            <div style=""width:240px; margin: auto;"">
                                <img src=""images/D48.png"" style= ""width:200px""alt=""img"">
                            </div>
                        </div>","-113","html-slider-response","29","105135","0.0-15.0","cukv0j3a02","10","90554","","","0","","","","blizzard","images/D48.png"
"NaN","<div style=""width:500px;"">
                            <p style=""font-size:50px; font-weight:bold;""
                            >blizzard</p>
                            <div style=""width:240px; margin: auto;"">
                                <img src=""images/D85.png"" style= ""width:200px""alt=""img"">
                            </div>
                        </div>","-191","html-slider-response","30","106645","0.0-16.0","cukv0j3a02","10","90554","","","0","","","","blizzard","images/D85.png"
"NaN","<div style=""width:500px;"">
                            <p style=""font-size:50px; font-weight:bold;""
                            >blizzard</p>
                            <div style=""width:240px; margin: auto;"">
                                <img src=""images/D79.png"" style= ""width:200px""alt=""img"">
                            </div>
                        </div>","-159","html-slider-response","31","108435","0.0-17.0","cukv0j3a02","10","90554","","","0","","","","blizzard","images/D79.png"
"NaN","<div style=""width:500px;"">
                            <p style=""font-size:50px; font-weight:bold;""
                            >blizzard</p>
                            <div style=""width:240px; margin: auto;"">
                                <img src=""images/D104.png"" style= ""width:200px""alt=""img"">
                            </div>
                        </div>","98","html-slider-response","32","110932","0.0-18.0","cukv0j3a02","10","90554","","","0","","","","blizzard","images/D104.png"
"NaN","<div style=""width:500px;"">
                            <p style=""font-size:50px; font-weight:bold;""
                            >blizzard</p>
                            <div style=""width:240px; margin: auto;"">
                                <img src=""images/D1.png"" style= ""width:200px""alt=""img"">
                            </div>
                        </div>","-164","html-slider-response","33","113152","0.0-19.0","cukv0j3a02","10","90554","","","0","","","","blizzard","images/D1.png"
"NaN","<div style=""width:500px;"">
                            <p style=""font-size:50px; font-weight:bold;""
                            >blizzard</p>
                            <div style=""width:240px; margin: auto;"">
                                <img src=""images/D74.png"" style= ""width:200px""alt=""img"">
                            </div>
                        </div>","-161","html-slider-response","34","114947","0.0-20.0","cukv0j3a02","10","90554","","","0","","","","blizzard","images/D74.png"
"NaN","<div style=""width:500px;"">
                            <p style=""font-size:50px; font-weight:bold;""
                            >blizzard</p>
                            <div style=""width:240px; margin: auto;"">
                                <img src=""images/D101.png"" style= ""width:200px""alt=""img"">
                            </div>
                        </div>","56","html-slider-response","35","117354","0.0-21.0","cukv0j3a02","10","90554","","","0","","","","blizzard","images/D101.png"
"NaN","<div style=""width:500px;"">
                            <p style=""font-size:50px; font-weight:bold;""
                            >blizzard</p>
                            <div style=""width:240px; margin: auto;"">
                                <img src=""images/D111.png"" style= ""width:200px""alt=""img"">
                            </div>
                        </div>","130","html-slider-response","36","119101","0.0-22.0","cukv0j3a02","10","90554","","","0","","","","blizzard","images/D111.png"
"NaN","<div style=""width:500px;"">
                            <p style=""font-size:50px; font-weight:bold;""
                            >blizzard</p>
                            <div style=""width:240px; margin: auto;"">
                                <img src=""images/D35.png"" style= ""width:200px""alt=""img"">
                            </div>
                        </div>","40","html-slider-response","37","120729","0.0-23.0","cukv0j3a02","10","90554","","","0","","","","blizzard","images/D35.png"
"NaN","<div style=""width:500px;"">
                            <p style=""font-size:50px; font-weight:bold;""
                            >blizzard</p>
                            <div style=""width:240px; margin: auto;"">
                                <img src=""images/D77.png"" style= ""width:200px""alt=""img"">
                            </div>
                        </div>","112","html-slider-response","38","122447","0.0-24.0","cukv0j3a02","10","90554","","","0","","","","blizzard","images/D77.png"
"NaN","<div style=""width:500px;"">
                            <p style=""font-size:50px; font-weight:bold;""
                            >blizzard</p>
                            <div style=""width:240px; margin: auto;"">
                                <img src=""images/D8.png"" style= ""width:200px""alt=""img"">
                            </div>
                        </div>","-111","html-slider-response","39","124286","0.0-25.0","cukv0j3a02","10","90554","","","0","","","","blizzard","images/D8.png"
"NaN","<div style=""width:500px;"">
                            <p style=""font-size:50px; font-weight:bold;""
                            >blizzard</p>
                            <div style=""width:240px; margin: auto;"">
                                <img src=""images/D65.png"" style= ""width:200px""alt=""img"">
                            </div>
                        </div>","-200","html-slider-response","40","125732","0.0-26.0","cukv0j3a02","10","90554","","","0","","","","blizzard","images/D65.png"
"NaN","<div style=""width:500px;"">
                            <p style=""font-size:50px; font-weight:bold;""
                            >blizzard</p>
                            <div style=""width:240px; margin: auto;"">
                                <img src=""images/D94.png"" style= ""width:200px""alt=""img"">
                            </div>
                        </div>","-200","html-slider-response","41","127108","0.0-27.0","cukv0j3a02","10","90554","","","0","","","","blizzard","images/D94.png"
"NaN","<div style=""width:500px;"">
                            <p style=""font-size:50px; font-weight:bold;""
                            >blizzard</p>
                            <div style=""width:240px; margin: auto;"">
                                <img src=""images/D46.png"" style= ""width:200px""alt=""img"">
                            </div>
                        </div>","-200","html-slider-response","42","128666","0.0-28.0","cukv0j3a02","10","90554","","","0","","","","blizzard","images/D46.png"
"NaN","<div style=""width:500px;"">
                            <p style=""font-size:50px; font-weight:bold;""
                            >blizzard</p>
                            <div style=""width:240px; margin: auto;"">
                                <img src=""images/D53.png"" style= ""width:200px""alt=""img"">
                            </div>
                        </div>","154","html-slider-response","43","137321","0.0-29.0","cukv0j3a02","10","90554","","","0","","","","blizzard","images/D53.png"
"NaN","<div style=""width:500px;"">
                            <p style=""font-size:50px; font-weight:bold;""
                            >blizzard</p>
                            <div style=""width:240px; margin: auto;"">
                                <img src=""images/D96.png"" style= ""width:200px""alt=""img"">
                            </div>
                        </div>","-186","html-slider-response","44","138905","0.0-30.0","cukv0j3a02","10","90554","","","0","","","","blizzard","images/D96.png"
"NaN","<div style=""width:500px;"">
                            <p style=""font-size:50px; font-weight:bold;""
                            >blizzard</p>
                            <div style=""width:240px; margin: auto;"">
                                <img src=""images/D87.png"" style= ""width:200px""alt=""img"">
                            </div>
                        </div>","-200","html-slider-response","45","140517","0.0-31.0","cukv0j3a02","10","90554","","","0","","","","blizzard","images/D87.png"
"NaN","<div style=""width:500px;"">
                            <p style=""font-size:50px; font-weight:bold;""
                            >blizzard</p>
                            <div style=""width:240px; margin: auto;"">
                                <img src=""images/D75.png"" style= ""width:200px""alt=""img"">
                            </div>
                        </div>","-190","html-slider-response","46","142076","0.0-32.0","cukv0j3a02","10","90554","","","0","","","","blizzard","images/D75.png"
"NaN","<div style=""width:500px;"">
                            <p style=""font-size:50px; font-weight:bold;""
                            >blizzard</p>
                            <div style=""width:240px; margin: auto;"">
                                <img src=""images/D82.png"" style= ""width:200px""alt=""img"">
                            </div>
                        </div>","130","html-slider-response","47","143691","0.0-33.0","cukv0j3a02","10","90554","","","0","","","","blizzard","images/D82.png"
"NaN","<div style=""width:500px;"">
                            <p style=""font-size:50px; font-weight:bold;""
                            >blizzard</p>
                            <div style=""width:240px; margin: auto;"">
                                <img src=""images/D49.png"" style= ""width:200px""alt=""img"">
                            </div>
                        </div>","-200","html-slider-response","48","145138","0.0-34.0","cukv0j3a02","10","90554","","","0","","","","blizzard","images/D49.png"
"NaN","<div style=""width:500px;"">
                            <p style=""font-size:50px; font-weight:bold;""
                            >blizzard</p>
                            <div style=""width:240px; margin: auto;"">
                                <img src=""images/D81.png"" style= ""width:200px""alt=""img"">
                            </div>
                        </div>","46","html-slider-response","49","146728","0.0-35.0","cukv0j3a02","10","90554","","","0","","","","blizzard","images/D81.png"
"NaN","<div style=""width:500px;"">
                            <p style=""font-size:50px; font-weight:bold;""
                            >blizzard</p>
                            <div style=""width:240px; margin: auto;"">
                                <img src=""images/D64.png"" style= ""width:200px""alt=""img"">
                            </div>
                        </div>","-200","html-slider-response","50","148081","0.0-36.0","cukv0j3a02","10","90554","","","0","","","","blizzard","images/D64.png"
"NaN","<div style=""width:500px;"">
                            <p style=""font-size:50px; font-weight:bold;""
                            >blizzard</p>
                            <div style=""width:240px; margin: auto;"">
                                <img src=""images/D78.png"" style= ""width:200px""alt=""img"">
                            </div>
                        </div>","-158","html-slider-response","51","150140","0.0-37.0","cukv0j3a02","10","90554","","","0","","","","blizzard","images/D78.png"
"NaN","<div style=""width:500px;"">
                            <p style=""font-size:50px; font-weight:bold;""
                            >blizzard</p>
                            <div style=""width:240px; margin: auto;"">
                                <img src=""images/D37.png"" style= ""width:200px""alt=""img"">
                            </div>
                        </div>","-100","html-slider-response","52","151588","0.0-38.0","cukv0j3a02","10","90554","","","0","","","","blizzard","images/D37.png"
"NaN","<div style=""width:500px;"">
                            <p style=""font-size:50px; font-weight:bold;""
                            >blizzard</p>
                            <div style=""width:240px; margin: auto;"">
                                <img src=""images/D47.png"" style= ""width:200px""alt=""img"">
                            </div>
                        </div>","-126","html-slider-response","53","152915","0.0-39.0","cukv0j3a02","10","90554","","","0","","","","blizzard","images/D47.png"
"NaN","<div style=""width:500px;"">
                            <p style=""font-size:50px; font-weight:bold;""
                            >blizzard</p>
                            <div style=""width:240px; margin: auto;"">
                                <img src=""images/D103.png"" style= ""width:200px""alt=""img"">
                            </div>
                        </div>","84","html-slider-response","54","154880","0.0-40.0","cukv0j3a02","10","90554","","","0","","","","blizzard","images/D103.png"
"NaN","<div style=""width:500px;"">
                            <p style=""font-size:50px; font-weight:bold;""
                            >blizzard</p>
                            <div style=""width:240px; margin: auto;"">
                                <img src=""images/D66.png"" style= ""width:200px""alt=""img"">
                            </div>
                        </div>","-96","html-slider-response","55","156462","0.0-41.0","cukv0j3a02","10","90554","","","0","","","","blizzard","images/D66.png"
"NaN","<div style=""width:500px;"">
                            <p style=""font-size:50px; font-weight:bold;""
                            >blizzard</p>
                            <div style=""width:240px; margin: auto;"">
                                <img src=""images/D57.png"" style= ""width:200px""alt=""img"">
                            </div>
                        </div>","132","html-slider-response","56","161311","0.0-42.0","cukv0j3a02","10","90554","","","0","","","","blizzard","images/D57.png"
"NaN","<div style=""width:500px;"">
                            <p style=""font-size:50px; font-weight:bold;""
                            >blizzard</p>
                            <div style=""width:240px; margin: auto;"">
                                <img src=""images/D34.png"" style= ""width:200px""alt=""img"">
                            </div>
                        </div>","-178","html-slider-response","57","162957","0.0-43.0","cukv0j3a02","10","90554","","","0","","","","blizzard","images/D34.png"
"NaN","<div style=""width:500px;"">
                            <p style=""font-size:50px; font-weight:bold;""
                            >blizzard</p>
                            <div style=""width:240px; margin: auto;"">
                                <img src=""images/D19.png"" style= ""width:200px""alt=""img"">
                            </div>
                        </div>","-128","html-slider-response","58","164509","0.0-44.0","cukv0j3a02","10","90554","","","0","","","","blizzard","images/D19.png"
"NaN","<div style=""width:500px;"">
                            <p style=""font-size:50px; font-weight:bold;""
                            >blizzard</p>
                            <div style=""width:240px; margin: auto;"">
                                <img src=""images/D18.png"" style= ""width:200px""alt=""img"">
                            </div>
                        </div>","-95","html-slider-response","59","166099","0.0-45.0","cukv0j3a02","10","90554","","","0","","","","blizzard","images/D18.png"
"NaN","<div style=""width:500px;"">
                            <p style=""font-size:50px; font-weight:bold;""
                            >blizzard</p>
                            <div style=""width:240px; margin: auto;"">
                                <img src=""images/D95.png"" style= ""width:200px""alt=""img"">
                            </div>
                        </div>","-152","html-slider-response","60","167427","0.0-46.0","cukv0j3a02","10","90554","","","0","","","","blizzard","images/D95.png"
"NaN","<div style=""width:500px;"">
                            <p style=""font-size:50px; font-weight:bold;""
                            >blizzard</p>
                            <div style=""width:240px; margin: auto;"">
                                <img src=""images/D36.png"" style= ""width:200px""alt=""img"">
                            </div>
                        </div>","-122","html-slider-response","61","168843","0.0-47.0","cukv0j3a02","10","90554","","","0","","","","blizzard","images/D36.png"
"NaN","<div style=""width:500px;"">
                            <p style=""font-size:50px; font-weight:bold;""
                            >blizzard</p>
                            <div style=""width:240px; margin: auto;"">
                                <img src=""images/D84.png"" style= ""width:200px""alt=""img"">
                            </div>
                        </div>","-172","html-slider-response","62","170419","0.0-48.0","cukv0j3a02","10","90554","","","0","","","","blizzard","images/D84.png"
"NaN","<div style=""width:500px;"">
                            <p style=""font-size:50px; font-weight:bold;""
                            >blizzard</p>
                            <div style=""width:240px; margin: auto;"">
                                <img src=""images/D68.png"" style= ""width:200px""alt=""img"">
                            </div>
                        </div>","-126","html-slider-response","63","174863","0.0-49.0","cukv0j3a02","10","90554","","","0","","","","blizzard","images/D68.png"
"NaN","<div style=""width:500px;"">
                            <p style=""font-size:50px; font-weight:bold;""
                            >blizzard</p>
                            <div style=""width:240px; margin: auto;"">
                                <img src=""images/D83.png"" style= ""width:200px""alt=""img"">
                            </div>
                        </div>","-172","html-slider-response","64","176494","0.0-50.0","cukv0j3a02","10","90554","","","0","","","","blizzard","images/D83.png"
"NaN","<div style=""width:500px;"">
                            <p style=""font-size:50px; font-weight:bold;""
                            >blizzard</p>
                            <div style=""width:240px; margin: auto;"">
                                <img src=""images/D105.png"" style= ""width:200px""alt=""img"">
                            </div>
                        </div>","20","html-slider-response","65","178617","0.0-51.0","cukv0j3a02","10","90554","","","0","","","","blizzard","images/D105.png"
"NaN","<div style=""width:500px;"">
                            <p style=""font-size:50px; font-weight:bold;""
                            >blizzard</p>
                            <div style=""width:240px; margin: auto;"">
                                <img src=""images/D22.png"" style= ""width:200px""alt=""img"">
                            </div>
                        </div>","-3","html-slider-response","66","180822","0.0-52.0","cukv0j3a02","10","90554","","","0","","","","blizzard","images/D22.png"
"NaN","<div style=""width:500px;"">
                            <p style=""font-size:50px; font-weight:bold;""
                            >blizzard</p>
                            <div style=""width:240px; margin: auto;"">
                                <img src=""images/D20.png"" style= ""width:200px""alt=""img"">
                            </div>
                        </div>","-154","html-slider-response","67","182252","0.0-53.0","cukv0j3a02","10","90554","","","0","","","","blizzard","images/D20.png"
"NaN","<div style=""width:500px;"">
                            <p style=""font-size:50px; font-weight:bold;""
                            >blizzard</p>
                            <div style=""width:240px; margin: auto;"">
                                <img src=""images/D14.png"" style= ""width:200px""alt=""img"">
                            </div>
                        </div>","15","html-slider-response","68","183397","0.0-54.0","cukv0j3a02","10","90554","","","0","","","","blizzard","images/D14.png"
"NaN","<div style=""width:500px;"">
                            <p style=""font-size:50px; font-weight:bold;""
                            >blizzard</p>
                            <div style=""width:240px; margin: auto;"">
                                <img src=""images/D17.png"" style= ""width:200px""alt=""img"">
                            </div>
                        </div>","64","html-slider-response","69","185097","0.0-55.0","cukv0j3a02","10","90554","","","0","","","","blizzard","images/D17.png"
"NaN","<div style=""width:500px;"">
                            <p style=""font-size:50px; font-weight:bold;""
                            >blizzard</p>
                            <div style=""width:240px; margin: auto;"">
                                <img src=""images/D52.png"" style= ""width:200px""alt=""img"">
                            </div>
                        </div>","-126","html-slider-response","70","186458","0.0-56.0","cukv0j3a02","10","90554","","","0","","","","blizzard","images/D52.png"
"NaN","<div style=""width:500px;"">
                            <p style=""font-size:50px; font-weight:bold;""
                            >blizzard</p>
                            <div style=""width:240px; margin: auto;"">
                                <img src=""images/D76.png"" style= ""width:200px""alt=""img"">
                            </div>
                        </div>","64","html-slider-response","71","188740","0.0-57.0","cukv0j3a02","10","90554","","","0","","","","blizzard","images/D76.png"
"NaN","<div style=""width:500px;"">
                            <p style=""font-size:50px; font-weight:bold;""
                            >blizzard</p>
                            <div style=""width:240px; margin: auto;"">
                                <img src=""images/D92.png"" style= ""width:200px""alt=""img"">
                            </div>
                        </div>","178","html-slider-response","72","190481","0.0-58.0","cukv0j3a02","10","90554","","","0","","","","blizzard","images/D92.png"
"NaN","<div style=""width:500px;"">
                            <p style=""font-size:50px; font-weight:bold;""
                            >blizzard</p>
                            <div style=""width:240px; margin: auto;"">
                                <img src=""images/D11.png"" style= ""width:200px""alt=""img"">
                            </div>
                        </div>","-200","html-slider-response","73","192064","0.0-59.0","cukv0j3a02","10","90554","","","0","","","","blizzard","images/D11.png"
"NaN","<div style=""width:500px;"">
                            <p style=""font-size:50px; font-weight:bold;""
                            >blizzard</p>
                            <div style=""width:240px; margin: auto;"">
                                <img src=""images/D26.png"" style= ""width:200px""alt=""img"">
                            </div>
                        </div>","-197","html-slider-response","74","193886","0.0-60.0","cukv0j3a02","10","90554","","","0","","","","blizzard","images/D26.png"
"NaN","<div style=""width:500px;"">
                            <p style=""font-size:50px; font-weight:bold;""
                            >blizzard</p>
                            <div style=""width:240px; margin: auto;"">
                                <img src=""images/D55.png"" style= ""width:200px""alt=""img"">
                            </div>
                        </div>","-144","html-slider-response","75","195516","0.0-61.0","cukv0j3a02","10","90554","","","0","","","","blizzard","images/D55.png"
"NaN","<div style=""width:500px;"">
                            <p style=""font-size:50px; font-weight:bold;""
                            >blizzard</p>
                            <div style=""width:240px; margin: auto;"">
                                <img src=""images/D56.png"" style= ""width:200px""alt=""img"">
                            </div>
                        </div>","-183","html-slider-response","76","197249","0.0-62.0","cukv0j3a02","10","90554","","","0","","","","blizzard","images/D56.png"
"NaN","<div style=""width:500px;"">
                            <p style=""font-size:50px; font-weight:bold;""
                            >blizzard</p>
                            <div style=""width:240px; margin: auto;"">
                                <img src=""images/D16.png"" style= ""width:200px""alt=""img"">
                            </div>
                        </div>","104","html-slider-response","77","198879","0.0-63.0","cukv0j3a02","10","90554","","","0","","","","blizzard","images/D16.png"
"NaN","<div style=""width:500px;"">
                            <p style=""font-size:50px; font-weight:bold;""
                            >blizzard</p>
                            <div style=""width:240px; margin: auto;"">
                                <img src=""images/D102.png"" style= ""width:200px""alt=""img"">
                            </div>
                        </div>","-165","html-slider-response","78","200478","0.0-64.0","cukv0j3a02","10","90554","","","0","","","","blizzard","images/D102.png"
"NaN","<div style=""width:500px;"">
                            <p style=""font-size:50px; font-weight:bold;""
                            >blizzard</p>
                            <div style=""width:240px; margin: auto;"">
                                <img src=""images/D51.png"" style= ""width:200px""alt=""img"">
                            </div>
                        </div>","-200","html-slider-response","79","202005","0.0-65.0","cukv0j3a02","10","90554","","","0","","","","blizzard","images/D51.png"
"1715","<p>Great Job! You've finished block 1.<br></br> You have 4 block(s) left to go.<br></br></p>","0","html-button-response","80","204222","0.0-66.0","cukv0j3a02","10","90554","","","","","","","",""
"NaN","<div style=""width:500px;"">
                            <p style=""font-size:50px; font-weight:bold;""
                            >drought</p>
                            <div style=""width:240px; margin: auto;"">
                                <img src=""images/D18.png"" style= ""width:200px""alt=""img"">
                            </div>
                        </div>","-168","html-slider-response","81","205790","0.0-67.0","cukv0j3a02","10","90554","","","0","","","","drought","images/D18.png"
"NaN","<div style=""width:500px;"">
                            <p style=""font-size:50px; font-weight:bold;""
                            >blizzard</p>
                            <div style=""width:240px; margin: auto;"">
                                <img src=""images/D94.png"" style= ""width:200px""alt=""img"">
                            </div>
                        </div>","-74","html-slider-response","82","209044","0.0-68.0","cukv0j3a02","10","90554","","","0","","","","blizzard","images/D94.png"
"NaN","<div style=""width:500px;"">
                            <p style=""font-size:50px; font-weight:bold;""
                            >blizzard</p>
                            <div style=""width:240px; margin: auto;"">
                                <img src=""images/D46.png"" style= ""width:200px""alt=""img"">
                            </div>
                        </div>","-147","html-slider-response","83","210697","0.0-69.0","cukv0j3a02","10","90554","","","0","","","","blizzard","images/D46.png"
"NaN","<div style=""width:500px;"">
                            <p style=""font-size:50px; font-weight:bold;""
                            >drought</p>
                            <div style=""width:240px; margin: auto;"">
                                <img src=""images/D74.png"" style= ""width:200px""alt=""img"">
                            </div>
                        </div>","-171","html-slider-response","84","213751","0.0-70.0","cukv0j3a02","10","90554","","","0","","","","drought","images/D74.png"
"NaN","<div style=""width:500px;"">
                            <p style=""font-size:50px; font-weight:bold;""
                            >drought</p>
                            <div style=""width:240px; margin: auto;"">
                                <img src=""images/D94.png"" style= ""width:200px""alt=""img"">
                            </div>
                        </div>","-124","html-slider-response","85","215547","0.0-71.0","cukv0j3a02","10","90554","","","0","","","","drought","images/D94.png"
"NaN","<div style=""width:500px;"">
                            <p style=""font-size:50px; font-weight:bold;""
                            >blizzard</p>
                            <div style=""width:240px; margin: auto;"">
                                <img src=""images/D20.png"" style= ""width:200px""alt=""img"">
                            </div>
                        </div>","-97","html-slider-response","86","217297","0.0-72.0","cukv0j3a02","10","90554","","","0","","","","blizzard","images/D20.png"
"NaN","<div style=""width:500px;"">
                            <p style=""font-size:50px; font-weight:bold;""
                            >drought</p>
                            <div style=""width:240px; margin: auto;"">
                                <img src=""images/D75.png"" style= ""width:200px""alt=""img"">
                            </div>
                        </div>","-146","html-slider-response","87","218777","0.0-73.0","cukv0j3a02","10","90554","","","0","","","","drought","images/D75.png"
"NaN","<div style=""width:500px;"">
                            <p style=""font-size:50px; font-weight:bold;""
                            >drought</p>
                            <div style=""width:240px; margin: auto;"">
                                <img src=""images/D55.png"" style= ""width:200px""alt=""img"">
                            </div>
                        </div>","-145","html-slider-response","88","221106","0.0-74.0","cukv0j3a02","10","90554","","","0","","","","drought","images/D55.png"
"NaN","<div style=""width:500px;"">
                            <p style=""font-size:50px; font-weight:bold;""
                            >blizzard</p>
                            <div style=""width:240px; margin: auto;"">
                                <img src=""images/D103.png"" style= ""width:200px""alt=""img"">
                            </div>
                        </div>","-144","html-slider-response","89","222755","0.0-75.0","cukv0j3a02","10","90554","","","0","","","","blizzard","images/D103.png"
"NaN","<div style=""width:500px;"">
                            <p style=""font-size:50px; font-weight:bold;""
                            >blizzard</p>
                            <div style=""width:240px; margin: auto;"">
                                <img src=""images/D1.png"" style= ""width:200px""alt=""img"">
                            </div>
                        </div>","-142","html-slider-response","90","224519","0.0-76.0","cukv0j3a02","10","90554","","","0","","","","blizzard","images/D1.png"
"NaN","<div style=""width:500px;"">
                            <p style=""font-size:50px; font-weight:bold;""
                            >drought</p>
                            <div style=""width:240px; margin: auto;"">
                                <img src=""images/D1.png"" style= ""width:200px""alt=""img"">
                            </div>
                        </div>","20","html-slider-response","91","226776","0.0-77.0","cukv0j3a02","10","90554","","","0","","","","drought","images/D1.png"
"NaN","<div style=""width:500px;"">
                            <p style=""font-size:50px; font-weight:bold;""
                            >drought</p>
                            <div style=""width:240px; margin: auto;"">
                                <img src=""images/D111.png"" style= ""width:200px""alt=""img"">
                            </div>
                        </div>","-104","html-slider-response","92","228972","0.0-78.0","cukv0j3a02","10","90554","","","0","","","","drought","images/D111.png"
"NaN","<div style=""width:500px;"">
                            <p style=""font-size:50px; font-weight:bold;""
                            >blizzard</p>
                            <div style=""width:240px; margin: auto;"">
                                <img src=""images/D49.png"" style= ""width:200px""alt=""img"">
                            </div>
                        </div>","-120","html-slider-response","93","230945","0.0-79.0","cukv0j3a02","10","90554","","","0","","","","blizzard","images/D49.png"
"NaN","<div style=""width:500px;"">
                            <p style=""font-size:50px; font-weight:bold;""
                            >drought</p>
                            <div style=""width:240px; margin: auto;"">
                                <img src=""images/D51.png"" style= ""width:200px""alt=""img"">
                            </div>
                        </div>","-167","html-slider-response","94","232757","0.0-80.0","cukv0j3a02","10","90554","","","0","","","","drought","images/D51.png"
"NaN","<div style=""width:500px;"">
                            <p style=""font-size:50px; font-weight:bold;""
                            >drought</p>
                            <div style=""width:240px; margin: auto;"">
                                <img src=""images/D46.png"" style= ""width:200px""alt=""img"">
                            </div>
                        </div>","-143","html-slider-response","95","234300","0.0-81.0","cukv0j3a02","10","90554","","","0","","","","drought","images/D46.png"
"NaN","<div style=""width:500px;"">
                            <p style=""font-size:50px; font-weight:bold;""
                            >blizzard</p>
                            <div style=""width:240px; margin: auto;"">
                                <img src=""images/D11.png"" style= ""width:200px""alt=""img"">
                            </div>
                        </div>","100","html-slider-response","96","236002","0.0-82.0","cukv0j3a02","10","90554","","","0","","","","blizzard","images/D11.png"
"NaN","<div style=""width:500px;"">
                            <p style=""font-size:50px; font-weight:bold;""
                            >blizzard</p>
                            <div style=""width:240px; margin: auto;"">
                                <img src=""images/D96.png"" style= ""width:200px""alt=""img"">
                            </div>
                        </div>","-189","html-slider-response","97","237394","0.0-83.0","cukv0j3a02","10","90554","","","0","","","","blizzard","images/D96.png"
"NaN","<div style=""width:500px;"">
                            <p style=""font-size:50px; font-weight:bold;""
                            >blizzard</p>
                            <div style=""width:240px; margin: auto;"">
                                <img src=""images/D111.png"" style= ""width:200px""alt=""img"">
                            </div>
                        </div>","-144","html-slider-response","98","239414","0.0-84.0","cukv0j3a02","10","90554","","","0","","","","blizzard","images/D111.png"
"NaN","<div style=""width:500px;"">
                            <p style=""font-size:50px; font-weight:bold;""
                            >drought</p>
                            <div style=""width:240px; margin: auto;"">
                                <img src=""images/D84.png"" style= ""width:200px""alt=""img"">
                            </div>
                        </div>","166","html-slider-response","99","241982","0.0-85.0","cukv0j3a02","10","90554","","","0","","","","drought","images/D84.png"
"NaN","<div style=""width:500px;"">
                            <p style=""font-size:50px; font-weight:bold;""
                            >drought</p>
                            <div style=""width:240px; margin: auto;"">
                                <img src=""images/D79.png"" style= ""width:200px""alt=""img"">
                            </div>
                        </div>","163","html-slider-response","100","244194","0.0-86.0","cukv0j3a02","10","90554","","","0","","","","drought","images/D79.png"
"NaN","<div style=""width:500px;"">
                            <p style=""font-size:50px; font-weight:bold;""
                            >blizzard</p>
                            <div style=""width:240px; margin: auto;"">
                                <img src=""images/D18.png"" style= ""width:200px""alt=""img"">
                            </div>
                        </div>","-98","html-slider-response","101","245815","0.0-87.0","cukv0j3a02","10","90554","","","0","","","","blizzard","images/D18.png"
"NaN","<div style=""width:500px;"">
                            <p style=""font-size:50px; font-weight:bold;""
                            >blizzard</p>
                            <div style=""width:240px; margin: auto;"">
                                <img src=""images/D105.png"" style= ""width:200px""alt=""img"">
                            </div>
                        </div>","-26","html-slider-response","102","247644","0.0-88.0","cukv0j3a02","10","90554","","","0","","","","blizzard","images/D105.png"
"NaN","<div style=""width:500px;"">
                            <p style=""font-size:50px; font-weight:bold;""
                            >blizzard</p>
                            <div style=""width:240px; margin: auto;"">
                                <img src=""images/D81.png"" style= ""width:200px""alt=""img"">
                            </div>
                        </div>","50","html-slider-response","103","249457","0.0-89.0","cukv0j3a02","10","90554","","","0","","","","blizzard","images/D81.png"
"NaN","<div style=""width:500px;"">
                            <p style=""font-size:50px; font-weight:bold;""
                            >drought</p>
                            <div style=""width:240px; margin: auto;"">
                                <img src=""images/D19.png"" style= ""width:200px""alt=""img"">
                            </div>
                        </div>","86","html-slider-response","104","251455","0.0-90.0","cukv0j3a02","10","90554","","","0","","","","drought","images/D19.png"
"NaN","<div style=""width:500px;"">
                            <p style=""font-size:50px; font-weight:bold;""
                            >blizzard</p>
                            <div style=""width:240px; margin: auto;"">
                                <img src=""images/D79.png"" style= ""width:200px""alt=""img"">
                            </div>
                        </div>","-72","html-slider-response","105","253314","0.0-91.0","cukv0j3a02","10","90554","","","0","","","","blizzard","images/D79.png"
"NaN","<div style=""width:500px;"">
                            <p style=""font-size:50px; font-weight:bold;""
                            >blizzard</p>
                            <div style=""width:240px; margin: auto;"">
                                <img src=""images/D75.png"" style= ""width:200px""alt=""img"">
                            </div>
                        </div>","-135","html-slider-response","106","254897","0.0-92.0","cukv0j3a02","10","90554","","","0","","","","blizzard","images/D75.png"
"NaN","<div style=""width:500px;"">
                            <p style=""font-size:50px; font-weight:bold;""
                            >blizzard</p>
                            <div style=""width:240px; margin: auto;"">
                                <img src=""images/D8.png"" style= ""width:200px""alt=""img"">
                            </div>
                        </div>","-109","html-slider-response","107","256202","0.0-93.0","cukv0j3a02","10","90554","","","0","","","","blizzard","images/D8.png"
"NaN","<div style=""width:500px;"">
                            <p style=""font-size:50px; font-weight:bold;""
                            >blizzard</p>
                            <div style=""width:240px; margin: auto;"">
                                <img src=""images/D68.png"" style= ""width:200px""alt=""img"">
                            </div>
                        </div>","-134","html-slider-response","108","257394","0.0-94.0","cukv0j3a02","10","90554","","","0","","","","blizzard","images/D68.png"
"NaN","<div style=""width:500px;"">
                            <p style=""font-size:50px; font-weight:bold;""
                            >blizzard</p>
                            <div style=""width:240px; margin: auto;"">
                                <img src=""images/D14.png"" style= ""width:200px""alt=""img"">
                            </div>
                        </div>","-121","html-slider-response","109","258602","0.0-95.0","cukv0j3a02","10","90554","","","0","","","","blizzard","images/D14.png"
"NaN","<div style=""width:500px;"">
                            <p style=""font-size:50px; font-weight:bold;""
                            >drought</p>
                            <div style=""width:240px; margin: auto;"">
                                <img src=""images/D82.png"" style= ""width:200px""alt=""img"">
                            </div>
                        </div>","-104","html-slider-response","110","259676","0.0-96.0","cukv0j3a02","10","90554","","","0","","","","drought","images/D82.png"
"NaN","<div style=""width:500px;"">
                            <p style=""font-size:50px; font-weight:bold;""
                            >drought</p>
                            <div style=""width:240px; margin: auto;"">
                                <img src=""images/D53.png"" style= ""width:200px""alt=""img"">
                            </div>
                        </div>","-158","html-slider-response","111","261291","0.0-97.0","cukv0j3a02","10","90554","","","0","","","","drought","images/D53.png"
"NaN","<div style=""width:500px;"">
                            <p style=""font-size:50px; font-weight:bold;""
                            >drought</p>
                            <div style=""width:240px; margin: auto;"">
                                <img src=""images/D17.png"" style= ""width:200px""alt=""img"">
                            </div>
                        </div>","-97","html-slider-response","112","262836","0.0-98.0","cukv0j3a02","10","90554","","","0","","","","drought","images/D17.png"
"NaN","<div style=""width:500px;"">
                            <p style=""font-size:50px; font-weight:bold;""
                            >blizzard</p>
                            <div style=""width:240px; margin: auto;"">
                                <img src=""images/D34.png"" style= ""width:200px""alt=""img"">
                            </div>
                        </div>","61","html-slider-response","113","264075","0.0-99.0","cukv0j3a02","10","90554","","","0","","","","blizzard","images/D34.png"
"NaN","<div style=""width:500px;"">
                            <p style=""font-size:50px; font-weight:bold;""
                            >drought</p>
                            <div style=""width:240px; margin: auto;"">
                                <img src=""images/D48.png"" style= ""width:200px""alt=""img"">
                            </div>
                        </div>","-74","html-slider-response","114","265070","0.0-100.0","cukv0j3a02","10","90554","","","0","","","","drought","images/D48.png"
"NaN","<div style=""width:500px;"">
                            <p style=""font-size:50px; font-weight:bold;""
                            >drought</p>
                            <div style=""width:240px; margin: auto;"">
                                <img src=""images/D57.png"" style= ""width:200px""alt=""img"">
                            </div>
                        </div>","200","html-slider-response","115","267503","0.0-101.0","cukv0j3a02","10","90554","","","0","","","","drought","images/D57.png"
"NaN","<div style=""width:500px;"">
                            <p style=""font-size:50px; font-weight:bold;""
                            >drought</p>
                            <div style=""width:240px; margin: auto;"">
                                <img src=""images/D8.png"" style= ""width:200px""alt=""img"">
                            </div>
                        </div>","-52","html-slider-response","116","269038","0.0-102.0","cukv0j3a02","10","90554","","","0","","","","drought","images/D8.png"
"NaN","<div style=""width:500px;"">
                            <p style=""font-size:50px; font-weight:bold;""
                            >blizzard</p>
                            <div style=""width:240px; margin: auto;"">
                                <img src=""images/D83.png"" style= ""width:200px""alt=""img"">
                            </div>
                        </div>","-74","html-slider-response","117","270970","0.0-103.0","cukv0j3a02","10","90554","","","0","","","","blizzard","images/D83.png"
"NaN","<div style=""width:500px;"">
                            <p style=""font-size:50px; font-weight:bold;""
                            >blizzard</p>
                            <div style=""width:240px; margin: auto;"">
                                <img src=""images/D57.png"" style= ""width:200px""alt=""img"">
                            </div>
                        </div>","173","html-slider-response","118","273420","0.0-104.0","cukv0j3a02","10","90554","","","0","","","","blizzard","images/D57.png"
"NaN","<div style=""width:500px;"">
                            <p style=""font-size:50px; font-weight:bold;""
                            >blizzard</p>
                            <div style=""width:240px; margin: auto;"">
                                <img src=""images/D36.png"" style= ""width:200px""alt=""img"">
                            </div>
                        </div>","-54","html-slider-response","119","274978","0.0-105.0","cukv0j3a02","10","90554","","","0","","","","blizzard","images/D36.png"
"NaN","<div style=""width:500px;"">
                            <p style=""font-size:50px; font-weight:bold;""
                            >drought</p>
                            <div style=""width:240px; margin: auto;"">
                                <img src=""images/D34.png"" style= ""width:200px""alt=""img"">
                            </div>
                        </div>","-71","html-slider-response","120","276648","0.0-106.0","cukv0j3a02","10","90554","","","0","","","","drought","images/D34.png"
"NaN","<div style=""width:500px;"">
                            <p style=""font-size:50px; font-weight:bold;""
                            >blizzard</p>
                            <div style=""width:240px; margin: auto;"">
                                <img src=""images/D85.png"" style= ""width:200px""alt=""img"">
                            </div>
                        </div>","-146","html-slider-response","121","278469","0.0-107.0","cukv0j3a02","10","90554","","","0","","","","blizzard","images/D85.png"
"NaN","<div style=""width:500px;"">
                            <p style=""font-size:50px; font-weight:bold;""
                            >drought</p>
                            <div style=""width:240px; margin: auto;"">
                                <img src=""images/D92.png"" style= ""width:200px""alt=""img"">
                            </div>
                        </div>","192","html-slider-response","122","282063","0.0-108.0","cukv0j3a02","10","90554","","","0","","","","drought","images/D92.png"
"NaN","<div style=""width:500px;"">
                            <p style=""font-size:50px; font-weight:bold;""
                            >drought</p>
                            <div style=""width:240px; margin: auto;"">
                                <img src=""images/D96.png"" style= ""width:200px""alt=""img"">
                            </div>
                        </div>","-189","html-slider-response","123","283726","0.0-109.0","cukv0j3a02","10","90554","","","0","","","","drought","images/D96.png"
"NaN","<div style=""width:500px;"">
                            <p style=""font-size:50px; font-weight:bold;""
                            >drought</p>
                            <div style=""width:240px; margin: auto;"">
                                <img src=""images/D4.png"" style= ""width:200px""alt=""img"">
                            </div>
                        </div>","-113","html-slider-response","124","288601","0.0-110.0","cukv0j3a02","10","90554","","","0","","","","drought","images/D4.png"
"NaN","<div style=""width:500px;"">
                            <p style=""font-size:50px; font-weight:bold;""
                            >blizzard</p>
                            <div style=""width:240px; margin: auto;"">
                                <img src=""images/D47.png"" style= ""width:200px""alt=""img"">
                            </div>
                        </div>","-187","html-slider-response","125","298460","0.0-111.0","cukv0j3a02","10","90554","","","0","","","","blizzard","images/D47.png"
"NaN","<div style=""width:500px;"">
                            <p style=""font-size:50px; font-weight:bold;""
                            >blizzard</p>
                            <div style=""width:240px; margin: auto;"">
                                <img src=""images/D76.png"" style= ""width:200px""alt=""img"">
                            </div>
                        </div>","-164","html-slider-response","126","300631","0.0-112.0","cukv0j3a02","10","90554","","","0","","","","blizzard","images/D76.png"
"NaN","<div style=""width:500px;"">
                            <p style=""font-size:50px; font-weight:bold;""
                            >blizzard</p>
                            <div style=""width:240px; margin: auto;"">
                                <img src=""images/D74.png"" style= ""width:200px""alt=""img"">
                            </div>
                        </div>","-96","html-slider-response","127","301815","0.0-113.0","cukv0j3a02","10","90554","","","0","","","","blizzard","images/D74.png"
"NaN","<div style=""width:500px;"">
                            <p style=""font-size:50px; font-weight:bold;""
                            >drought</p>
                            <div style=""width:240px; margin: auto;"">
                                <img src=""images/D85.png"" style= ""width:200px""alt=""img"">
                            </div>
                        </div>","-130","html-slider-response","128","303223","0.0-114.0","cukv0j3a02","10","90554","","","0","","","","drought","images/D85.png"
"NaN","<div style=""width:500px;"">
                            <p style=""font-size:50px; font-weight:bold;""
                            >drought</p>
                            <div style=""width:240px; margin: auto;"">
                                <img src=""images/D11.png"" style= ""width:200px""alt=""img"">
                            </div>
                        </div>","-144","html-slider-response","129","304203","0.0-115.0","cukv0j3a02","10","90554","","","0","","","","drought","images/D11.png"
"NaN","<div style=""width:500px;"">
                            <p style=""font-size:50px; font-weight:bold;""
                            >blizzard</p>
                            <div style=""width:240px; margin: auto;"">
                                <img src=""images/D35.png"" style= ""width:200px""alt=""img"">
                            </div>
                        </div>","-144","html-slider-response","130","305506","0.0-116.0","cukv0j3a02","10","90554","","","0","","","","blizzard","images/D35.png"
"NaN","<div style=""width:500px;"">
                            <p style=""font-size:50px; font-weight:bold;""
                            >blizzard</p>
                            <div style=""width:240px; margin: auto;"">
                                <img src=""images/D22.png"" style= ""width:200px""alt=""img"">
                            </div>
                        </div>","-144","html-slider-response","131","307003","0.0-117.0","cukv0j3a02","10","90554","","","0","","","","blizzard","images/D22.png"
"NaN","<div style=""width:500px;"">
                            <p style=""font-size:50px; font-weight:bold;""
                            >blizzard</p>
                            <div style=""width:240px; margin: auto;"">
                                <img src=""images/D87.png"" style= ""width:200px""alt=""img"">
                            </div>
                        </div>","111","html-slider-response","132","308917","0.0-118.0","cukv0j3a02","10","90554","","","0","","","","blizzard","images/D87.png"
"NaN","<div style=""width:500px;"">
                            <p style=""font-size:50px; font-weight:bold;""
                            >blizzard</p>
                            <div style=""width:240px; margin: auto;"">
                                <img src=""images/D65.png"" style= ""width:200px""alt=""img"">
                            </div>
                        </div>","-148","html-slider-response","133","310619","0.0-119.0","cukv0j3a02","10","90554","","","0","","","","blizzard","images/D65.png"
"NaN","<div style=""width:500px;"">
                            <p style=""font-size:50px; font-weight:bold;""
                            >drought</p>
                            <div style=""width:240px; margin: auto;"">
                                <img src=""images/D20.png"" style= ""width:200px""alt=""img"">
                            </div>
                        </div>","-154","html-slider-response","134","311581","0.0-120.0","cukv0j3a02","10","90554","","","0","","","","drought","images/D20.png"
"NaN","<div style=""width:500px;"">
                            <p style=""font-size:50px; font-weight:bold;""
                            >blizzard</p>
                            <div style=""width:240px; margin: auto;"">
                                <img src=""images/D102.png"" style= ""width:200px""alt=""img"">
                            </div>
                        </div>","-154","html-slider-response","135","312694","0.0-121.0","cukv0j3a02","10","90554","","","0","","","","blizzard","images/D102.png"
"NaN","<div style=""width:500px;"">
                            <p style=""font-size:50px; font-weight:bold;""
                            >drought</p>
                            <div style=""width:240px; margin: auto;"">
                                <img src=""images/D103.png"" style= ""width:200px""alt=""img"">
                            </div>
                        </div>","-154","html-slider-response","136","313656","0.0-122.0","cukv0j3a02","10","90554","","","0","","","","drought","images/D103.png"
"NaN","<div style=""width:500px;"">
                            <p style=""font-size:50px; font-weight:bold;""
                            >blizzard</p>
                            <div style=""width:240px; margin: auto;"">
                                <img src=""images/D25.png"" style= ""width:200px""alt=""img"">
                            </div>
                        </div>","-154","html-slider-response","137","314835","0.0-123.0","cukv0j3a02","10","90554","","","0","","","","blizzard","images/D25.png"
"NaN","<div style=""width:500px;"">
                            <p style=""font-size:50px; font-weight:bold;""
                            >drought</p>
                            <div style=""width:240px; margin: auto;"">
                                <img src=""images/D81.png"" style= ""width:200px""alt=""img"">
                            </div>
                        </div>","-165","html-slider-response","138","317427","0.0-124.0","cukv0j3a02","10","90554","","","0","","","","drought","images/D81.png"
"NaN","<div style=""width:500px;"">
                            <p style=""font-size:50px; font-weight:bold;""
                            >drought</p>
                            <div style=""width:240px; margin: auto;"">
                                <img src=""images/D26.png"" style= ""width:200px""alt=""img"">
                            </div>
                        </div>","-165","html-slider-response","139","318627","0.0-125.0","cukv0j3a02","10","90554","","","0","","","","drought","images/D26.png"
"NaN","<div style=""width:500px;"">
                            <p style=""font-size:50px; font-weight:bold;""
                            >drought</p>
                            <div style=""width:240px; margin: auto;"">
                                <img src=""images/D104.png"" style= ""width:200px""alt=""img"">
                            </div>
                        </div>","148","html-slider-response","140","320878","0.0-126.0","cukv0j3a02","10","90554","","","0","","","","drought","images/D104.png"
"NaN","<div style=""width:500px;"">
                            <p style=""font-size:50px; font-weight:bold;""
                            >drought</p>
                            <div style=""width:240px; margin: auto;"">
                                <img src=""images/D22.png"" style= ""width:200px""alt=""img"">
                            </div>
                        </div>","-51","html-slider-response","141","322438","0.0-127.0","cukv0j3a02","10","90554","","","0","","","","drought","images/D22.png"
"NaN","<div style=""width:500px;"">
                            <p style=""font-size:50px; font-weight:bold;""
                            >blizzard</p>
                            <div style=""width:240px; margin: auto;"">
                                <img src=""images/D78.png"" style= ""width:200px""alt=""img"">
                            </div>
                        </div>","-74","html-slider-response","142","324139","0.0-128.0","cukv0j3a02","10","90554","","","0","","","","blizzard","images/D78.png"
"NaN","<div style=""width:500px;"">
                            <p style=""font-size:50px; font-weight:bold;""
                            >drought</p>
                            <div style=""width:240px; margin: auto;"">
                                <img src=""images/D101.png"" style= ""width:200px""alt=""img"">
                            </div>
                        </div>","-116","html-slider-response","143","325301","0.0-129.0","cukv0j3a02","10","90554","","","0","","","","drought","images/D101.png"
"NaN","<div style=""width:500px;"">
                            <p style=""font-size:50px; font-weight:bold;""
                            >blizzard</p>
                            <div style=""width:240px; margin: auto;"">
                                <img src=""images/D101.png"" style= ""width:200px""alt=""img"">
                            </div>
                        </div>","-147","html-slider-response","144","326501","0.0-130.0","cukv0j3a02","10","90554","","","0","","","","blizzard","images/D101.png"
"NaN","<div style=""width:500px;"">
                            <p style=""font-size:50px; font-weight:bold;""
                            >blizzard</p>
                            <div style=""width:240px; margin: auto;"">
                                <img src=""images/D53.png"" style= ""width:200px""alt=""img"">
                            </div>
                        </div>","-147","html-slider-response","145","328188","0.0-131.0","cukv0j3a02","10","90554","","","0","","","","blizzard","images/D53.png"
"NaN","<div style=""width:500px;"">
                            <p style=""font-size:50px; font-weight:bold;""
                            >blizzard</p>
                            <div style=""width:240px; margin: auto;"">
                                <img src=""images/D92.png"" style= ""width:200px""alt=""img"">
                            </div>
                        </div>","-124","html-slider-response","146","366238","0.0-132.0","cukv0j3a02","10","90554","","","0","","","","blizzard","images/D92.png"
"NaN","<div style=""width:500px;"">
                            <p style=""font-size:50px; font-weight:bold;""
                            >drought</p>
                            <div style=""width:240px; margin: auto;"">
                                <img src=""images/D37.png"" style= ""width:200px""alt=""img"">
                            </div>
                        </div>","200","html-slider-response","147","368560","0.0-133.0","cukv0j3a02","10","90554","","","0","","","","drought","images/D37.png"
"NaN","<div style=""width:500px;"">
                            <p style=""font-size:50px; font-weight:bold;""
                            >drought</p>
                            <div style=""width:240px; margin: auto;"">
                                <img src=""images/D83.png"" style= ""width:200px""alt=""img"">
                            </div>
                        </div>","-97","html-slider-response","148","370739","0.0-134.0","cukv0j3a02","10","90554","","","0","","","","drought","images/D83.png"
"NaN","<div style=""width:500px;"">
                            <p style=""font-size:50px; font-weight:bold;""
                            >drought</p>
                            <div style=""width:240px; margin: auto;"">
                                <img src=""images/D66.png"" style= ""width:200px""alt=""img"">
                            </div>
                        </div>","-94","html-slider-response","149","371852","0.0-135.0","cukv0j3a02","10","90554","","","0","","","","drought","images/D66.png"
"NaN","<div style=""width:500px;"">
                            <p style=""font-size:50px; font-weight:bold;""
                            >blizzard</p>
                            <div style=""width:240px; margin: auto;"">
                                <img src=""images/D77.png"" style= ""width:200px""alt=""img"">
                            </div>
                        </div>","-94","html-slider-response","150","372934","0.0-136.0","cukv0j3a02","10","90554","","","0","","","","blizzard","images/D77.png"
"NaN","<div style=""width:500px;"">
                            <p style=""font-size:50px; font-weight:bold;""
                            >blizzard</p>
                            <div style=""width:240px; margin: auto;"">
                                <img src=""images/D64.png"" style= ""width:200px""alt=""img"">
                            </div>
                        </div>","-115","html-slider-response","151","374134","0.0-137.0","cukv0j3a02","10","90554","","","0","","","","blizzard","images/D64.png"
"NaN","<div style=""width:500px;"">
                            <p style=""font-size:50px; font-weight:bold;""
                            >drought</p>
                            <div style=""width:240px; margin: auto;"">
                                <img src=""images/D95.png"" style= ""width:200px""alt=""img"">
                            </div>
                        </div>","-182","html-slider-response","152","375645","0.0-138.0","cukv0j3a02","10","90554","","","0","","","","drought","images/D95.png"
"NaN","<div style=""width:500px;"">
                            <p style=""font-size:50px; font-weight:bold;""
                            >blizzard</p>
                            <div style=""width:240px; margin: auto;"">
                                <img src=""images/D84.png"" style= ""width:200px""alt=""img"">
                            </div>
                        </div>","-175","html-slider-response","153","377014","0.0-139.0","cukv0j3a02","10","90554","","","0","","","","blizzard","images/D84.png"
"NaN","<div style=""width:500px;"">
                            <p style=""font-size:50px; font-weight:bold;""
                            >drought</p>
                            <div style=""width:240px; margin: auto;"">
                                <img src=""images/D78.png"" style= ""width:200px""alt=""img"">
                            </div>
                        </div>","-175","html-slider-response","154","378310","0.0-140.0","cukv0j3a02","10","90554","","","0","","","","drought","images/D78.png"
"NaN","<div style=""width:500px;"">
                            <p style=""font-size:50px; font-weight:bold;""
                            >drought</p>
                            <div style=""width:240px; margin: auto;"">
                                <img src=""images/D64.png"" style= ""width:200px""alt=""img"">
                            </div>
                        </div>","-175","html-slider-response","155","379439","0.0-141.0","cukv0j3a02","10","90554","","","0","","","","drought","images/D64.png"
"NaN","<div style=""width:500px;"">
                            <p style=""font-size:50px; font-weight:bold;""
                            >drought</p>
                            <div style=""width:240px; margin: auto;"">
                                <img src=""images/D35.png"" style= ""width:200px""alt=""img"">
                            </div>
                        </div>","-175","html-slider-response","156","380727","0.0-142.0","cukv0j3a02","10","90554","","","0","","","","drought","images/D35.png"
"NaN","<div style=""width:500px;"">
                            <p style=""font-size:50px; font-weight:bold;""
                            >blizzard</p>
                            <div style=""width:240px; margin: auto;"">
                                <img src=""images/D26.png"" style= ""width:200px""alt=""img"">
                            </div>
                        </div>","-175","html-slider-response","157","382031","0.0-143.0","cukv0j3a02","10","90554","","","0","","","","blizzard","images/D26.png"
"NaN","<div style=""width:500px;"">
                            <p style=""font-size:50px; font-weight:bold;""
                            >drought</p>
                            <div style=""width:240px; margin: auto;"">
                                <img src=""images/D56.png"" style= ""width:200px""alt=""img"">
                            </div>
                        </div>","-175","html-slider-response","158","383025","0.0-144.0","cukv0j3a02","10","90554","","","0","","","","drought","images/D56.png"
"NaN","<div style=""width:500px;"">
                            <p style=""font-size:50px; font-weight:bold;""
                            >blizzard</p>
                            <div style=""width:240px; margin: auto;"">
                                <img src=""images/D55.png"" style= ""width:200px""alt=""img"">
                            </div>
                        </div>","-175","html-slider-response","159","384186","0.0-145.0","cukv0j3a02","10","90554","","","0","","","","blizzard","images/D55.png"
"NaN","<div style=""width:500px;"">
                            <p style=""font-size:50px; font-weight:bold;""
                            >drought</p>
                            <div style=""width:240px; margin: auto;"">
                                <img src=""images/D76.png"" style= ""width:200px""alt=""img"">
                            </div>
                        </div>","-175","html-slider-response","160","385626","0.0-146.0","cukv0j3a02","10","90554","","","0","","","","drought","images/D76.png"
"NaN","<div style=""width:500px;"">
                            <p style=""font-size:50px; font-weight:bold;""
                            >drought</p>
                            <div style=""width:240px; margin: auto;"">
                                <img src=""images/D36.png"" style= ""width:200px""alt=""img"">
                            </div>
                        </div>","-175","html-slider-response","161","387017","0.0-147.0","cukv0j3a02","10","90554","","","0","","","","drought","images/D36.png"
"NaN","<div style=""width:500px;"">
                            <p style=""font-size:50px; font-weight:bold;""
                            >blizzard</p>
                            <div style=""width:240px; margin: auto;"">
                                <img src=""images/D17.png"" style= ""width:200px""alt=""img"">
                            </div>
                        </div>","-175","html-slider-response","162","388298","0.0-148.0","cukv0j3a02","10","90554","","","0","","","","blizzard","images/D17.png"
"NaN","<div style=""width:500px;"">
                            <p style=""font-size:50px; font-weight:bold;""
                            >blizzard</p>
                            <div style=""width:240px; margin: auto;"">
                                <img src=""images/D37.png"" style= ""width:200px""alt=""img"">
                            </div>
                        </div>","-175","html-slider-response","163","389864","0.0-149.0","cukv0j3a02","10","90554","","","0","","","","blizzard","images/D37.png"
"NaN","<div style=""width:500px;"">
                            <p style=""font-size:50px; font-weight:bold;""
                            >drought</p>
                            <div style=""width:240px; margin: auto;"">
                                <img src=""images/D77.png"" style= ""width:200px""alt=""img"">
                            </div>
                        </div>","101","html-slider-response","164","392202","0.0-150.0","cukv0j3a02","10","90554","","","0","","","","drought","images/D77.png"
"NaN","<div style=""width:500px;"">
                            <p style=""font-size:50px; font-weight:bold;""
                            >drought</p>
                            <div style=""width:240px; margin: auto;"">
                                <img src=""images/D25.png"" style= ""width:200px""alt=""img"">
                            </div>
                        </div>","-149","html-slider-response","165","393968","0.0-151.0","cukv0j3a02","10","90554","","","0","","","","drought","images/D25.png"
"NaN","<div style=""width:500px;"">
                            <p style=""font-size:50px; font-weight:bold;""
                            >blizzard</p>
                            <div style=""width:240px; margin: auto;"">
                                <img src=""images/D66.png"" style= ""width:200px""alt=""img"">
                            </div>
                        </div>","-98","html-slider-response","166","395963","0.0-152.0","cukv0j3a02","10","90554","","","0","","","","blizzard","images/D66.png"
"NaN","<div style=""width:500px;"">
                            <p style=""font-size:50px; font-weight:bold;""
                            >drought</p>
                            <div style=""width:240px; margin: auto;"">
                                <img src=""images/D102.png"" style= ""width:200px""alt=""img"">
                            </div>
                        </div>","-158","html-slider-response","167","397339","0.0-153.0","cukv0j3a02","10","90554","","","0","","","","drought","images/D102.png"
"NaN","<div style=""width:500px;"">
                            <p style=""font-size:50px; font-weight:bold;""
                            >drought</p>
                            <div style=""width:240px; margin: auto;"">
                                <img src=""images/D87.png"" style= ""width:200px""alt=""img"">
                            </div>
                        </div>","197","html-slider-response","168","399344","0.0-154.0","cukv0j3a02","10","90554","","","0","","","","drought","images/D87.png"
"NaN","<div style=""width:500px;"">
                            <p style=""font-size:50px; font-weight:bold;""
                            >drought</p>
                            <div style=""width:240px; margin: auto;"">
                                <img src=""images/D14.png"" style= ""width:200px""alt=""img"">
                            </div>
                        </div>","-128","html-slider-response","169","400950","0.0-155.0","cukv0j3a02","10","90554","","","0","","","","drought","images/D14.png"
"NaN","<div style=""width:500px;"">
                            <p style=""font-size:50px; font-weight:bold;""
                            >blizzard</p>
                            <div style=""width:240px; margin: auto;"">
                                <img src=""images/D104.png"" style= ""width:200px""alt=""img"">
                            </div>
