"rt","stimulus","response","trial_type","trial_index","time_elapsed","internal_node_id","subject_id","condition_num","sona_id","success","question_order","slider_start","practiceTrial","practiceTrialNum","correct","concept","texture_id"
"1659","Welcome to our experiment!<p>At the bottom of this screen, you will see a button that says ""Begin Experiment"".<br>Please only click that button when you are ready to complete the 30 minute experiment in one sitting.</p><p> Once you click that button, it will not be possible to restart the experiment.","0","html-button-response","0","1662","0.0-0.0","yqf0h3qg10","4","91630","","","","","","","",""
"1429","","","fullscreen","1","4095","0.0-1.0","yqf0h3qg10","4","91630","true","","","","","","",""
"8578","","{""Consent"":[""<strong>I consent</strong>""]}","survey-multi-select","2","12676","0.0-2.0","yqf0h3qg10","4","91630","","[0]","","","","","",""
"1464","Welcome! <p> This experiment involves two parts: demographic information, followed by the experimental task.<p> It will take about 30 minutes to complete both parts.","0","html-button-response","3","14142","0.0-3.0","yqf0h3qg10","4","91630","","","","","","","",""
"11610","","{""Age"":""18"",""Gender"":""Female"",""Race/ethnicity"":""White"",""Languages"":""English, Spanish""}","survey-text","4","25761","0.0-4.0","yqf0h3qg10","4","91630","","","","","","","",""
"19961","
                        <div style=""height:720px;"">
                            <div style='text-align:left; font-size:18px; line-height:25px; width: 1200px;'>
                                During this experiment you will be presented with a series of concepts, one at a time, from the set below:                             </div>

                            <div style=""text-align: left; width: 1200px;"">
                                <p style=""font-size:18px; line-height:20px; text-align:center; font-weight:bold "">beach,
                                    ocean, sky, sunset, field
                                <p style=""font-size:18px; line-height:18px;""></p>
                            </div>
                            <div style='text-align:left; font-size:18px; line-height:25px; width: 1200px;'>
                                For each concept, you will be asked to rate how much you associate it with each of the visual textures
                                below on a scale from 'not at all' to 'very much'.                            </div>
                            <div style=""display: flex; justify-content: center; width: 90%;"">
                                <div style=""text-align: center; width: 1000px; display: grid; grid-template-columns: repeat(13, .5fr); gap: 5px; padding: 5px; margin: 0 auto;"">
                                    
                                    <div style=""width: 95%; aspect-ratio: 1;"">
                                        <img src=""images/D1.png"" style=""width: 100%; height: 100%; object-fit: cover;"">
                                    </div>
                                    
                                    <div style=""width: 95%; aspect-ratio: 1;"">
                                        <img src=""images/D4.png"" style=""width: 100%; height: 100%; object-fit: cover;"">
                                    </div>
                                    
                                    <div style=""width: 95%; aspect-ratio: 1;"">
                                        <img src=""images/D8.png"" style=""width: 100%; height: 100%; object-fit: cover;"">
                                    </div>
                                    
                                    <div style=""width: 95%; aspect-ratio: 1;"">
                                        <img src=""images/D11.png"" style=""width: 100%; height: 100%; object-fit: cover;"">
                                    </div>
                                    
                                    <div style=""width: 95%; aspect-ratio: 1;"">
                                        <img src=""images/D14.png"" style=""width: 100%; height: 100%; object-fit: cover;"">
                                    </div>
                                    
                                    <div style=""width: 95%; aspect-ratio: 1;"">
                                        <img src=""images/D16.png"" style=""width: 100%; height: 100%; object-fit: cover;"">
                                    </div>
                                    
                                    <div style=""width: 95%; aspect-ratio: 1;"">
                                        <img src=""images/D17.png"" style=""width: 100%; height: 100%; object-fit: cover;"">
                                    </div>
                                    
                                    <div style=""width: 95%; aspect-ratio: 1;"">
                                        <img src=""images/D18.png"" style=""width: 100%; height: 100%; object-fit: cover;"">
                                    </div>
                                    
                                    <div style=""width: 95%; aspect-ratio: 1;"">
                                        <img src=""images/D19.png"" style=""width: 100%; height: 100%; object-fit: cover;"">
                                    </div>
                                    
                                    <div style=""width: 95%; aspect-ratio: 1;"">
                                        <img src=""images/D20.png"" style=""width: 100%; height: 100%; object-fit: cover;"">
                                    </div>
                                    
                                    <div style=""width: 95%; aspect-ratio: 1;"">
                                        <img src=""images/D22.png"" style=""width: 100%; height: 100%; object-fit: cover;"">
                                    </div>
                                    
                                    <div style=""width: 95%; aspect-ratio: 1;"">
                                        <img src=""images/D25.png"" style=""width: 100%; height: 100%; object-fit: cover;"">
                                    </div>
                                    
                                    <div style=""width: 95%; aspect-ratio: 1;"">
                                        <img src=""images/D26.png"" style=""width: 100%; height: 100%; object-fit: cover;"">
                                    </div>
                                    
                                    <div style=""width: 95%; aspect-ratio: 1;"">
                                        <img src=""images/D34.png"" style=""width: 100%; height: 100%; object-fit: cover;"">
                                    </div>
                                    
                                    <div style=""width: 95%; aspect-ratio: 1;"">
                                        <img src=""images/D35.png"" style=""width: 100%; height: 100%; object-fit: cover;"">
                                    </div>
                                    
                                    <div style=""width: 95%; aspect-ratio: 1;"">
                                        <img src=""images/D36.png"" style=""width: 100%; height: 100%; object-fit: cover;"">
                                    </div>
                                    
                                    <div style=""width: 95%; aspect-ratio: 1;"">
                                        <img src=""images/D37.png"" style=""width: 100%; height: 100%; object-fit: cover;"">
                                    </div>
                                    
                                    <div style=""width: 95%; aspect-ratio: 1;"">
                                        <img src=""images/D46.png"" style=""width: 100%; height: 100%; object-fit: cover;"">
                                    </div>
                                    
                                    <div style=""width: 95%; aspect-ratio: 1;"">
                                        <img src=""images/D47.png"" style=""width: 100%; height: 100%; object-fit: cover;"">
                                    </div>
                                    
                                    <div style=""width: 95%; aspect-ratio: 1;"">
                                        <img src=""images/D48.png"" style=""width: 100%; height: 100%; object-fit: cover;"">
                                    </div>
                                    
                                    <div style=""width: 95%; aspect-ratio: 1;"">
                                        <img src=""images/D49.png"" style=""width: 100%; height: 100%; object-fit: cover;"">
                                    </div>
                                    
                                    <div style=""width: 95%; aspect-ratio: 1;"">
                                        <img src=""images/D51.png"" style=""width: 100%; height: 100%; object-fit: cover;"">
                                    </div>
                                    
                                    <div style=""width: 95%; aspect-ratio: 1;"">
                                        <img src=""images/D52.png"" style=""width: 100%; height: 100%; object-fit: cover;"">
                                    </div>
                                    
                                    <div style=""width: 95%; aspect-ratio: 1;"">
                                        <img src=""images/D53.png"" style=""width: 100%; height: 100%; object-fit: cover;"">
                                    </div>
                                    
                                    <div style=""width: 95%; aspect-ratio: 1;"">
                                        <img src=""images/D55.png"" style=""width: 100%; height: 100%; object-fit: cover;"">
                                    </div>
                                    
                                    <div style=""width: 95%; aspect-ratio: 1;"">
                                        <img src=""images/D56.png"" style=""width: 100%; height: 100%; object-fit: cover;"">
                                    </div>
                                    
                                    <div style=""width: 95%; aspect-ratio: 1;"">
                                        <img src=""images/D57.png"" style=""width: 100%; height: 100%; object-fit: cover;"">
                                    </div>
                                    
                                    <div style=""width: 95%; aspect-ratio: 1;"">
                                        <img src=""images/D64.png"" style=""width: 100%; height: 100%; object-fit: cover;"">
                                    </div>
                                    
                                    <div style=""width: 95%; aspect-ratio: 1;"">
                                        <img src=""images/D65.png"" style=""width: 100%; height: 100%; object-fit: cover;"">
                                    </div>
                                    
                                    <div style=""width: 95%; aspect-ratio: 1;"">
                                        <img src=""images/D66.png"" style=""width: 100%; height: 100%; object-fit: cover;"">
                                    </div>
                                    
                                    <div style=""width: 95%; aspect-ratio: 1;"">
                                        <img src=""images/D68.png"" style=""width: 100%; height: 100%; object-fit: cover;"">
                                    </div>
                                    
                                    <div style=""width: 95%; aspect-ratio: 1;"">
                                        <img src=""images/D74.png"" style=""width: 100%; height: 100%; object-fit: cover;"">
                                    </div>
                                    
                                    <div style=""width: 95%; aspect-ratio: 1;"">
                                        <img src=""images/D75.png"" style=""width: 100%; height: 100%; object-fit: cover;"">
                                    </div>
                                    
                                    <div style=""width: 95%; aspect-ratio: 1;"">
                                        <img src=""images/D76.png"" style=""width: 100%; height: 100%; object-fit: cover;"">
                                    </div>
                                    
                                    <div style=""width: 95%; aspect-ratio: 1;"">
                                        <img src=""images/D77.png"" style=""width: 100%; height: 100%; object-fit: cover;"">
                                    </div>
                                    
                                    <div style=""width: 95%; aspect-ratio: 1;"">
                                        <img src=""images/D78.png"" style=""width: 100%; height: 100%; object-fit: cover;"">
                                    </div>
                                    
                                    <div style=""width: 95%; aspect-ratio: 1;"">
                                        <img src=""images/D79.png"" style=""width: 100%; height: 100%; object-fit: cover;"">
                                    </div>
                                    
                                    <div style=""width: 95%; aspect-ratio: 1;"">
                                        <img src=""images/D81.png"" style=""width: 100%; height: 100%; object-fit: cover;"">
                                    </div>
                                    
                                    <div style=""width: 95%; aspect-ratio: 1;"">
                                        <img src=""images/D82.png"" style=""width: 100%; height: 100%; object-fit: cover;"">
                                    </div>
                                    
                                    <div style=""width: 95%; aspect-ratio: 1;"">
                                        <img src=""images/D83.png"" style=""width: 100%; height: 100%; object-fit: cover;"">
                                    </div>
                                    
                                    <div style=""width: 95%; aspect-ratio: 1;"">
                                        <img src=""images/D84.png"" style=""width: 100%; height: 100%; object-fit: cover;"">
                                    </div>
                                    
                                    <div style=""width: 95%; aspect-ratio: 1;"">
                                        <img src=""images/D85.png"" style=""width: 100%; height: 100%; object-fit: cover;"">
                                    </div>
                                    
                                    <div style=""width: 95%; aspect-ratio: 1;"">
                                        <img src=""images/D87.png"" style=""width: 100%; height: 100%; object-fit: cover;"">
                                    </div>
                                    
                                    <div style=""width: 95%; aspect-ratio: 1;"">
                                        <img src=""images/D92.png"" style=""width: 100%; height: 100%; object-fit: cover;"">
                                    </div>
                                    
                                    <div style=""width: 95%; aspect-ratio: 1;"">
                                        <img src=""images/D94.png"" style=""width: 100%; height: 100%; object-fit: cover;"">
                                    </div>
                                    
                                    <div style=""width: 95%; aspect-ratio: 1;"">
                                        <img src=""images/D95.png"" style=""width: 100%; height: 100%; object-fit: cover;"">
                                    </div>
                                    
                                    <div style=""width: 95%; aspect-ratio: 1;"">
                                        <img src=""images/D96.png"" style=""width: 100%; height: 100%; object-fit: cover;"">
                                    </div>
                                    
                                    <div style=""width: 95%; aspect-ratio: 1;"">
                                        <img src=""images/D101.png"" style=""width: 100%; height: 100%; object-fit: cover;"">
                                    </div>
                                    
                                    <div style=""width: 95%; aspect-ratio: 1;"">
                                        <img src=""images/D102.png"" style=""width: 100%; height: 100%; object-fit: cover;"">
                                    </div>
                                    
                                    <div style=""width: 95%; aspect-ratio: 1;"">
                                        <img src=""images/D103.png"" style=""width: 100%; height: 100%; object-fit: cover;"">
                                    </div>
                                    
                                    <div style=""width: 95%; aspect-ratio: 1;"">
                                        <img src=""images/D104.png"" style=""width: 100%; height: 100%; object-fit: cover;"">
                                    </div>
                                    
                                    <div style=""width: 95%; aspect-ratio: 1;"">
                                        <img src=""images/D105.png"" style=""width: 100%; height: 100%; object-fit: cover;"">
                                    </div>
                                    
                                </div>
                            </div>
                            <br>
                            <div style='text-align:left; font-size:18px; line-height:25px; width: 1200px;'>
                                Each trial will include one concept word and one visual texture. You will be asked to make your rating by
                                sliding the cursor along a slider response scale.<br>                                Before beginning, please look at the list of concepts and textures.                                 For each concept, think about the texture you associate least with it.                                When you see that texture paired with that concept please click on the left endpoint of the scale near 'not at
                                all'.                                Now, please think about the texture you associate most with it.                                When you see that texture paired with that concept please click on the right endpoint of the scale near 'very
                                much'. <br><br>                                Please use the full range of the scale.                                That is, if you believe a concept is somewhat associated with a texture, you would click at the midpoint of the
                                scale.                                You will be asked to rate each texture for a given concept before moving on to the next.<br>Press the 'Continue'
                                button for instructions on how to use the slider.

                            </div>
                            <!-- Centered text paragraphs -->

                        </div>
                         ","-47","html-slider-response","5","45725","0.0-5.0","yqf0h3qg10","4","91630","","","0","true","","","",""
"1247","<div style=""width:800px;""><p style=""text-align:left"">To move the slider, click and drag your cursor to the location of the scale where you would like to make your rating and then let go. When you let go of the slider, your response will be recorded and the next trial will begin. <br>
                    We are interested in your initial impressions of each concept for a given scale, so please go with your first intuition. <br>
                    Before you begin the experiment, there will be four training trials for you to practice using the slider. <br>
                     When you are ready to start the training trials, please click ""Continue"".</p><br></div>","0","html-button-response","6","46973","0.0-6.0","yqf0h3qg10","4","91630","","","","","","","",""
"NaN","<div style=""width:500px;"">
                                    <p style=""font-size:25px;"">Please move the slider all the way to the <br> right endpoint of the scale</p>

                                    </div>
                                </div>","200","html-slider-response","7","50187","0.0-7.0-0.0","yqf0h3qg10","4","91630","","","0","true","0","true","",""
"702","<p align='center'><b>Good job!</b> Click on 'Continue' to proceed.</p>","0","html-button-response","8","51391","0.0-7.0-1.0","yqf0h3qg10","4","91630","","","","","","","",""
"NaN","<div style=""width:500px;"">
                                    <p style=""font-size:25px;"">Please move the slider all the way to the <br> left endpoint of the scale</p>

                                    </div>
                                </div>","-200","html-slider-response","9","52686","0.0-8.0-0.0","yqf0h3qg10","4","91630","","","0","true","1","true","",""
"734","<p align='center'><b>Good job!</b> Click on 'Continue' to proceed.</p>","0","html-button-response","10","53924","0.0-8.0-1.0","yqf0h3qg10","4","91630","","","","","","","",""
"NaN","<div style=""width:500px;"">
                                    <p style=""font-size:25px;"">Please move the slider halfway between the center and right endpoint of the scale</p>

                                    </div>
                                </div>","106","html-slider-response","11","57253","0.0-9.0-0.0","yqf0h3qg10","4","91630","","","0","true","2","true","",""
"652","<p align='center'><b>Good job!</b> Click on 'Continue' to proceed.</p>","0","html-button-response","12","58407","0.0-9.0-1.0","yqf0h3qg10","4","91630","","","","","","","",""
"NaN","<div style=""width:500px;"">
                                    <p style=""font-size:25px;"">Please move the slider halfway between the center and left endpoint of the scale</p>

                                    </div>
                                </div>","-105","html-slider-response","13","60085","0.0-10.0-0.0","yqf0h3qg10","4","91630","","","0","true","3","true","",""
"836","<p align='center'><b>Good job!</b> Click on 'Continue' to proceed.</p>","0","html-button-response","14","61424","0.0-10.0-1.0","yqf0h3qg10","4","91630","","","","","","","",""
"632","<p>Great job! You've completed the practice trials. Now you will begin the main task.</p>","0","html-button-response","15","62057","0.0-11.0","yqf0h3qg10","4","91630","","","","","","","",""
"2982","<p>In this block of trials, you will be asked to rate how much you associate each texture with the concept</p > <p style = 'font-size:150%; font-weight: bold'>beach</p><br></br>","0","html-button-response","16","65041","0.0-12.0","yqf0h3qg10","4","91630","","","","","","","",""
"NaN","<div style=""width:500px;"">
                            <p style=""font-size:50px; font-weight:bold;""
                            >beach</p>
                            <div style=""width:240px; margin: auto;"">
                                <img src=""images/D57.png"" style= ""width:200px""alt=""img"">
                            </div>
                        </div>","70","html-slider-response","17","67669","0.0-13.0","yqf0h3qg10","4","91630","","","0","","","","beach","images/D57.png"
"NaN","<div style=""width:500px;"">
                            <p style=""font-size:50px; font-weight:bold;""
                            >beach</p>
                            <div style=""width:240px; margin: auto;"">
                                <img src=""images/D68.png"" style= ""width:200px""alt=""img"">
                            </div>
                        </div>","-33","html-slider-response","18","71019","0.0-14.0","yqf0h3qg10","4","91630","","","0","","","","beach","images/D68.png"
"NaN","<div style=""width:500px;"">
                            <p style=""font-size:50px; font-weight:bold;""
                            >beach</p>
                            <div style=""width:240px; margin: auto;"">
                                <img src=""images/D47.png"" style= ""width:200px""alt=""img"">
                            </div>
                        </div>","-159","html-slider-response","19","73801","0.0-15.0","yqf0h3qg10","4","91630","","","0","","","","beach","images/D47.png"
"NaN","<div style=""width:500px;"">
                            <p style=""font-size:50px; font-weight:bold;""
                            >beach</p>
                            <div style=""width:240px; margin: auto;"">
                                <img src=""images/D66.png"" style= ""width:200px""alt=""img"">
                            </div>
                        </div>","150","html-slider-response","20","76052","0.0-16.0","yqf0h3qg10","4","91630","","","0","","","","beach","images/D66.png"
"NaN","<div style=""width:500px;"">
                            <p style=""font-size:50px; font-weight:bold;""
                            >beach</p>
                            <div style=""width:240px; margin: auto;"">
                                <img src=""images/D102.png"" style= ""width:200px""alt=""img"">
                            </div>
                        </div>","50","html-slider-response","21","78717","0.0-17.0","yqf0h3qg10","4","91630","","","0","","","","beach","images/D102.png"
"NaN","<div style=""width:500px;"">
                            <p style=""font-size:50px; font-weight:bold;""
                            >beach</p>
                            <div style=""width:240px; margin: auto;"">
                                <img src=""images/D18.png"" style= ""width:200px""alt=""img"">
                            </div>
                        </div>","154","html-slider-response","22","81836","0.0-18.0","yqf0h3qg10","4","91630","","","0","","","","beach","images/D18.png"
"NaN","<div style=""width:500px;"">
                            <p style=""font-size:50px; font-weight:bold;""
                            >beach</p>
                            <div style=""width:240px; margin: auto;"">
                                <img src=""images/D87.png"" style= ""width:200px""alt=""img"">
                            </div>
                        </div>","200","html-slider-response","23","84818","0.0-19.0","yqf0h3qg10","4","91630","","","0","","","","beach","images/D87.png"
"NaN","<div style=""width:500px;"">
                            <p style=""font-size:50px; font-weight:bold;""
                            >beach</p>
                            <div style=""width:240px; margin: auto;"">
                                <img src=""images/D111.png"" style= ""width:200px""alt=""img"">
                            </div>
                        </div>","67","html-slider-response","24","87454","0.0-20.0","yqf0h3qg10","4","91630","","","0","","","","beach","images/D111.png"
"NaN","<div style=""width:500px;"">
                            <p style=""font-size:50px; font-weight:bold;""
                            >beach</p>
                            <div style=""width:240px; margin: auto;"">
                                <img src=""images/D14.png"" style= ""width:200px""alt=""img"">
                            </div>
                        </div>","-48","html-slider-response","25","90036","0.0-21.0","yqf0h3qg10","4","91630","","","0","","","","beach","images/D14.png"
"NaN","<div style=""width:500px;"">
                            <p style=""font-size:50px; font-weight:bold;""
                            >beach</p>
                            <div style=""width:240px; margin: auto;"">
                                <img src=""images/D35.png"" style= ""width:200px""alt=""img"">
                            </div>
                        </div>","-164","html-slider-response","26","92337","0.0-22.0","yqf0h3qg10","4","91630","","","0","","","","beach","images/D35.png"
"NaN","<div style=""width:500px;"">
                            <p style=""font-size:50px; font-weight:bold;""
                            >beach</p>
                            <div style=""width:240px; margin: auto;"">
                                <img src=""images/D84.png"" style= ""width:200px""alt=""img"">
                            </div>
                        </div>","142","html-slider-response","27","95352","0.0-23.0","yqf0h3qg10","4","91630","","","0","","","","beach","images/D84.png"
"NaN","<div style=""width:500px;"">
                            <p style=""font-size:50px; font-weight:bold;""
                            >beach</p>
                            <div style=""width:240px; margin: auto;"">
                                <img src=""images/D56.png"" style= ""width:200px""alt=""img"">
                            </div>
                        </div>","-112","html-slider-response","28","98584","0.0-24.0","yqf0h3qg10","4","91630","","","0","","","","beach","images/D56.png"
"NaN","<div style=""width:500px;"">
                            <p style=""font-size:50px; font-weight:bold;""
                            >beach</p>
                            <div style=""width:240px; margin: auto;"">
                                <img src=""images/D4.png"" style= ""width:200px""alt=""img"">
                            </div>
                        </div>","-190","html-slider-response","29","101102","0.0-25.0","yqf0h3qg10","4","91630","","","0","","","","beach","images/D4.png"
"NaN","<div style=""width:500px;"">
                            <p style=""font-size:50px; font-weight:bold;""
                            >beach</p>
                            <div style=""width:240px; margin: auto;"">
                                <img src=""images/D95.png"" style= ""width:200px""alt=""img"">
                            </div>
                        </div>","-50","html-slider-response","30","103334","0.0-26.0","yqf0h3qg10","4","91630","","","0","","","","beach","images/D95.png"
"NaN","<div style=""width:500px;"">
                            <p style=""font-size:50px; font-weight:bold;""
                            >beach</p>
                            <div style=""width:240px; margin: auto;"">
                                <img src=""images/D81.png"" style= ""width:200px""alt=""img"">
                            </div>
                        </div>","-114","html-slider-response","31","105535","0.0-27.0","yqf0h3qg10","4","91630","","","0","","","","beach","images/D81.png"
"NaN","<div style=""width:500px;"">
                            <p style=""font-size:50px; font-weight:bold;""
                            >beach</p>
                            <div style=""width:240px; margin: auto;"">
                                <img src=""images/D104.png"" style= ""width:200px""alt=""img"">
                            </div>
                        </div>","-47","html-slider-response","32","107835","0.0-28.0","yqf0h3qg10","4","91630","","","0","","","","beach","images/D104.png"
"NaN","<div style=""width:500px;"">
                            <p style=""font-size:50px; font-weight:bold;""
                            >beach</p>
                            <div style=""width:240px; margin: auto;"">
                                <img src=""images/D20.png"" style= ""width:200px""alt=""img"">
                            </div>
                        </div>","-200","html-slider-response","33","110086","0.0-29.0","yqf0h3qg10","4","91630","","","0","","","","beach","images/D20.png"
"NaN","<div style=""width:500px;"">
                            <p style=""font-size:50px; font-weight:bold;""
                            >beach</p>
                            <div style=""width:240px; margin: auto;"">
                                <img src=""images/D55.png"" style= ""width:200px""alt=""img"">
                            </div>
                        </div>","71","html-slider-response","34","112867","0.0-30.0","yqf0h3qg10","4","91630","","","0","","","","beach","images/D55.png"
"NaN","<div style=""width:500px;"">
                            <p style=""font-size:50px; font-weight:bold;""
                            >beach</p>
                            <div style=""width:240px; margin: auto;"">
                                <img src=""images/D101.png"" style= ""width:200px""alt=""img"">
                            </div>
                        </div>","-104","html-slider-response","35","115218","0.0-31.0","yqf0h3qg10","4","91630","","","0","","","","beach","images/D101.png"
"NaN","<div style=""width:500px;"">
                            <p style=""font-size:50px; font-weight:bold;""
                            >beach</p>
                            <div style=""width:240px; margin: auto;"">
                                <img src=""images/D11.png"" style= ""width:200px""alt=""img"">
                            </div>
                        </div>","153","html-slider-response","36","117985","0.0-32.0","yqf0h3qg10","4","91630","","","0","","","","beach","images/D11.png"
"NaN","<div style=""width:500px;"">
                            <p style=""font-size:50px; font-weight:bold;""
                            >beach</p>
                            <div style=""width:240px; margin: auto;"">
                                <img src=""images/D85.png"" style= ""width:200px""alt=""img"">
                            </div>
                        </div>","-86","html-slider-response","37","120318","0.0-33.0","yqf0h3qg10","4","91630","","","0","","","","beach","images/D85.png"
"NaN","<div style=""width:500px;"">
                            <p style=""font-size:50px; font-weight:bold;""
                            >beach</p>
                            <div style=""width:240px; margin: auto;"">
                                <img src=""images/D94.png"" style= ""width:200px""alt=""img"">
                            </div>
                        </div>","-200","html-slider-response","38","122652","0.0-34.0","yqf0h3qg10","4","91630","","","0","","","","beach","images/D94.png"
"NaN","<div style=""width:500px;"">
                            <p style=""font-size:50px; font-weight:bold;""
                            >beach</p>
                            <div style=""width:240px; margin: auto;"">
                                <img src=""images/D52.png"" style= ""width:200px""alt=""img"">
                            </div>
                        </div>","-200","html-slider-response","39","124768","0.0-35.0","yqf0h3qg10","4","91630","","","0","","","","beach","images/D52.png"
"NaN","<div style=""width:500px;"">
                            <p style=""font-size:50px; font-weight:bold;""
                            >beach</p>
                            <div style=""width:240px; margin: auto;"">
                                <img src=""images/D76.png"" style= ""width:200px""alt=""img"">
                            </div>
                        </div>","-200","html-slider-response","40","127236","0.0-36.0","yqf0h3qg10","4","91630","","","0","","","","beach","images/D76.png"
"NaN","<div style=""width:500px;"">
                            <p style=""font-size:50px; font-weight:bold;""
                            >beach</p>
                            <div style=""width:240px; margin: auto;"">
                                <img src=""images/D26.png"" style= ""width:200px""alt=""img"">
                            </div>
                        </div>","-200","html-slider-response","41","129651","0.0-37.0","yqf0h3qg10","4","91630","","","0","","","","beach","images/D26.png"
"NaN","<div style=""width:500px;"">
                            <p style=""font-size:50px; font-weight:bold;""
                            >beach</p>
                            <div style=""width:240px; margin: auto;"">
                                <img src=""images/D16.png"" style= ""width:200px""alt=""img"">
                            </div>
                        </div>","-200","html-slider-response","42","131951","0.0-38.0","yqf0h3qg10","4","91630","","","0","","","","beach","images/D16.png"
"NaN","<div style=""width:500px;"">
                            <p style=""font-size:50px; font-weight:bold;""
                            >beach</p>
                            <div style=""width:240px; margin: auto;"">
                                <img src=""images/D82.png"" style= ""width:200px""alt=""img"">
                            </div>
                        </div>","46","html-slider-response","43","135136","0.0-39.0","yqf0h3qg10","4","91630","","","0","","","","beach","images/D82.png"
"NaN","<div style=""width:500px;"">
                            <p style=""font-size:50px; font-weight:bold;""
                            >beach</p>
                            <div style=""width:240px; margin: auto;"">
                                <img src=""images/D74.png"" style= ""width:200px""alt=""img"">
                            </div>
                        </div>","134","html-slider-response","44","137334","0.0-40.0","yqf0h3qg10","4","91630","","","0","","","","beach","images/D74.png"
"NaN","<div style=""width:500px;"">
                            <p style=""font-size:50px; font-weight:bold;""
                            >beach</p>
                            <div style=""width:240px; margin: auto;"">
                                <img src=""images/D75.png"" style= ""width:200px""alt=""img"">
                            </div>
                        </div>","32","html-slider-response","45","139384","0.0-41.0","yqf0h3qg10","4","91630","","","0","","","","beach","images/D75.png"
"NaN","<div style=""width:500px;"">
                            <p style=""font-size:50px; font-weight:bold;""
                            >beach</p>
                            <div style=""width:240px; margin: auto;"">
                                <img src=""images/D83.png"" style= ""width:200px""alt=""img"">
                            </div>
                        </div>","-42","html-slider-response","46","141184","0.0-42.0","yqf0h3qg10","4","91630","","","0","","","","beach","images/D83.png"
"NaN","<div style=""width:500px;"">
                            <p style=""font-size:50px; font-weight:bold;""
                            >beach</p>
                            <div style=""width:240px; margin: auto;"">
                                <img src=""images/D105.png"" style= ""width:200px""alt=""img"">
                            </div>
                        </div>","-95","html-slider-response","47","143918","0.0-43.0","yqf0h3qg10","4","91630","","","0","","","","beach","images/D105.png"
"NaN","<div style=""width:500px;"">
                            <p style=""font-size:50px; font-weight:bold;""
                            >beach</p>
                            <div style=""width:240px; margin: auto;"">
                                <img src=""images/D48.png"" style= ""width:200px""alt=""img"">
                            </div>
                        </div>","100","html-slider-response","48","147084","0.0-44.0","yqf0h3qg10","4","91630","","","0","","","","beach","images/D48.png"
"NaN","<div style=""width:500px;"">
                            <p style=""font-size:50px; font-weight:bold;""
                            >beach</p>
                            <div style=""width:240px; margin: auto;"">
                                <img src=""images/D77.png"" style= ""width:200px""alt=""img"">
                            </div>
                        </div>","-41","html-slider-response","49","149784","0.0-45.0","yqf0h3qg10","4","91630","","","0","","","","beach","images/D77.png"
"NaN","<div style=""width:500px;"">
                            <p style=""font-size:50px; font-weight:bold;""
                            >beach</p>
                            <div style=""width:240px; margin: auto;"">
                                <img src=""images/D22.png"" style= ""width:200px""alt=""img"">
                            </div>
                        </div>","108","html-slider-response","50","151784","0.0-46.0","yqf0h3qg10","4","91630","","","0","","","","beach","images/D22.png"
"NaN","<div style=""width:500px;"">
                            <p style=""font-size:50px; font-weight:bold;""
                            >beach</p>
                            <div style=""width:240px; margin: auto;"">
                                <img src=""images/D96.png"" style= ""width:200px""alt=""img"">
                            </div>
                        </div>","-184","html-slider-response","51","153751","0.0-47.0","yqf0h3qg10","4","91630","","","0","","","","beach","images/D96.png"
"NaN","<div style=""width:500px;"">
                            <p style=""font-size:50px; font-weight:bold;""
                            >beach</p>
                            <div style=""width:240px; margin: auto;"">
                                <img src=""images/D1.png"" style= ""width:200px""alt=""img"">
                            </div>
                        </div>","-110","html-slider-response","52","155901","0.0-48.0","yqf0h3qg10","4","91630","","","0","","","","beach","images/D1.png"
"NaN","<div style=""width:500px;"">
                            <p style=""font-size:50px; font-weight:bold;""
                            >beach</p>
                            <div style=""width:240px; margin: auto;"">
                                <img src=""images/D8.png"" style= ""width:200px""alt=""img"">
                            </div>
                        </div>","-113","html-slider-response","53","158052","0.0-49.0","yqf0h3qg10","4","91630","","","0","","","","beach","images/D8.png"
"NaN","<div style=""width:500px;"">
                            <p style=""font-size:50px; font-weight:bold;""
                            >beach</p>
                            <div style=""width:240px; margin: auto;"">
                                <img src=""images/D25.png"" style= ""width:200px""alt=""img"">
                            </div>
                        </div>","-200","html-slider-response","54","160451","0.0-50.0","yqf0h3qg10","4","91630","","","0","","","","beach","images/D25.png"
"NaN","<div style=""width:500px;"">
                            <p style=""font-size:50px; font-weight:bold;""
                            >beach</p>
                            <div style=""width:240px; margin: auto;"">
                                <img src=""images/D46.png"" style= ""width:200px""alt=""img"">
                            </div>
                        </div>","-200","html-slider-response","55","164535","0.0-51.0","yqf0h3qg10","4","91630","","","0","","","","beach","images/D46.png"
"NaN","<div style=""width:500px;"">
                            <p style=""font-size:50px; font-weight:bold;""
                            >beach</p>
                            <div style=""width:240px; margin: auto;"">
                                <img src=""images/D53.png"" style= ""width:200px""alt=""img"">
                            </div>
                        </div>","-189","html-slider-response","56","166901","0.0-52.0","yqf0h3qg10","4","91630","","","0","","","","beach","images/D53.png"
"NaN","<div style=""width:500px;"">
                            <p style=""font-size:50px; font-weight:bold;""
                            >beach</p>
                            <div style=""width:240px; margin: auto;"">
                                <img src=""images/D103.png"" style= ""width:200px""alt=""img"">
                            </div>
                        </div>","-200","html-slider-response","57","168885","0.0-53.0","yqf0h3qg10","4","91630","","","0","","","","beach","images/D103.png"
"NaN","<div style=""width:500px;"">
                            <p style=""font-size:50px; font-weight:bold;""
                            >beach</p>
                            <div style=""width:240px; margin: auto;"">
                                <img src=""images/D64.png"" style= ""width:200px""alt=""img"">
                            </div>
                        </div>","-79","html-slider-response","58","171035","0.0-54.0","yqf0h3qg10","4","91630","","","0","","","","beach","images/D64.png"
"NaN","<div style=""width:500px;"">
                            <p style=""font-size:50px; font-weight:bold;""
                            >beach</p>
                            <div style=""width:240px; margin: auto;"">
                                <img src=""images/D79.png"" style= ""width:200px""alt=""img"">
                            </div>
                        </div>","-78","html-slider-response","59","172969","0.0-55.0","yqf0h3qg10","4","91630","","","0","","","","beach","images/D79.png"
"NaN","<div style=""width:500px;"">
                            <p style=""font-size:50px; font-weight:bold;""
                            >beach</p>
                            <div style=""width:240px; margin: auto;"">
                                <img src=""images/D92.png"" style= ""width:200px""alt=""img"">
                            </div>
                        </div>","82","html-slider-response","60","175117","0.0-56.0","yqf0h3qg10","4","91630","","","0","","","","beach","images/D92.png"
"NaN","<div style=""width:500px;"">
                            <p style=""font-size:50px; font-weight:bold;""
                            >beach</p>
                            <div style=""width:240px; margin: auto;"">
                                <img src=""images/D65.png"" style= ""width:200px""alt=""img"">
                            </div>
                        </div>","-98","html-slider-response","61","177067","0.0-57.0","yqf0h3qg10","4","91630","","","0","","","","beach","images/D65.png"
"NaN","<div style=""width:500px;"">
                            <p style=""font-size:50px; font-weight:bold;""
                            >beach</p>
                            <div style=""width:240px; margin: auto;"">
                                <img src=""images/D49.png"" style= ""width:200px""alt=""img"">
                            </div>
                        </div>","53","html-slider-response","62","179384","0.0-58.0","yqf0h3qg10","4","91630","","","0","","","","beach","images/D49.png"
"NaN","<div style=""width:500px;"">
                            <p style=""font-size:50px; font-weight:bold;""
                            >beach</p>
                            <div style=""width:240px; margin: auto;"">
                                <img src=""images/D19.png"" style= ""width:200px""alt=""img"">
                            </div>
                        </div>","74","html-slider-response","63","181334","0.0-59.0","yqf0h3qg10","4","91630","","","0","","","","beach","images/D19.png"
"NaN","<div style=""width:500px;"">
                            <p style=""font-size:50px; font-weight:bold;""
                            >beach</p>
                            <div style=""width:240px; margin: auto;"">
                                <img src=""images/D78.png"" style= ""width:200px""alt=""img"">
                            </div>
                        </div>","-74","html-slider-response","64","183302","0.0-60.0","yqf0h3qg10","4","91630","","","0","","","","beach","images/D78.png"
"NaN","<div style=""width:500px;"">
                            <p style=""font-size:50px; font-weight:bold;""
                            >beach</p>
                            <div style=""width:240px; margin: auto;"">
                                <img src=""images/D36.png"" style= ""width:200px""alt=""img"">
                            </div>
                        </div>","54","html-slider-response","65","185201","0.0-61.0","yqf0h3qg10","4","91630","","","0","","","","beach","images/D36.png"
"NaN","<div style=""width:500px;"">
                            <p style=""font-size:50px; font-weight:bold;""
                            >beach</p>
                            <div style=""width:240px; margin: auto;"">
                                <img src=""images/D17.png"" style= ""width:200px""alt=""img"">
                            </div>
                        </div>","132","html-slider-response","66","187385","0.0-62.0","yqf0h3qg10","4","91630","","","0","","","","beach","images/D17.png"
"NaN","<div style=""width:500px;"">
                            <p style=""font-size:50px; font-weight:bold;""
                            >beach</p>
                            <div style=""width:240px; margin: auto;"">
                                <img src=""images/D34.png"" style= ""width:200px""alt=""img"">
                            </div>
                        </div>","-121","html-slider-response","67","189917","0.0-63.0","yqf0h3qg10","4","91630","","","0","","","","beach","images/D34.png"
"NaN","<div style=""width:500px;"">
                            <p style=""font-size:50px; font-weight:bold;""
                            >beach</p>
                            <div style=""width:240px; margin: auto;"">
                                <img src=""images/D37.png"" style= ""width:200px""alt=""img"">
                            </div>
                        </div>","200","html-slider-response","68","192284","0.0-64.0","yqf0h3qg10","4","91630","","","0","","","","beach","images/D37.png"
"NaN","<div style=""width:500px;"">
                            <p style=""font-size:50px; font-weight:bold;""
                            >beach</p>
                            <div style=""width:240px; margin: auto;"">
                                <img src=""images/D51.png"" style= ""width:200px""alt=""img"">
                            </div>
                        </div>","-62","html-slider-response","69","194751","0.0-65.0","yqf0h3qg10","4","91630","","","0","","","","beach","images/D51.png"
"12859","<p>Great Job! You've finished block 1.<br></br> You have 4 block(s) left to go.<br></br></p>","0","html-button-response","70","429996","0.0-66.0","yqf0h3qg10","4","91630","","","","","","","",""
"NaN","<div style=""width:500px;"">
                            <p style=""font-size:50px; font-weight:bold;""
                            >ocean</p>
                            <div style=""width:240px; margin: auto;"">
                                <img src=""images/D105.png"" style= ""width:200px""alt=""img"">
                            </div>
                        </div>","-63","html-slider-response","71","431541","0.0-67.0","yqf0h3qg10","4","91630","","","0","","","","ocean","images/D105.png"
"NaN","<div style=""width:500px;"">
                            <p style=""font-size:50px; font-weight:bold;""
                            >ocean</p>
                            <div style=""width:240px; margin: auto;"">
                                <img src=""images/D101.png"" style= ""width:200px""alt=""img"">
                            </div>
                        </div>","-115","html-slider-response","72","433291","0.0-68.0","yqf0h3qg10","4","91630","","","0","","","","ocean","images/D101.png"
"NaN","<div style=""width:500px;"">
                            <p style=""font-size:50px; font-weight:bold;""
                            >ocean</p>
                            <div style=""width:240px; margin: auto;"">
                                <img src=""images/D81.png"" style= ""width:200px""alt=""img"">
                            </div>
                        </div>","-36","html-slider-response","73","435074","0.0-69.0","yqf0h3qg10","4","91630","","","0","","","","ocean","images/D81.png"
"NaN","<div style=""width:500px;"">
                            <p style=""font-size:50px; font-weight:bold;""
                            >ocean</p>
                            <div style=""width:240px; margin: auto;"">
                                <img src=""images/D78.png"" style= ""width:200px""alt=""img"">
                            </div>
                        </div>","-26","html-slider-response","74","436475","0.0-70.0","yqf0h3qg10","4","91630","","","0","","","","ocean","images/D78.png"
"NaN","<div style=""width:500px;"">
                            <p style=""font-size:50px; font-weight:bold;""
                            >ocean</p>
                            <div style=""width:240px; margin: auto;"">
                                <img src=""images/D47.png"" style= ""width:200px""alt=""img"">
                            </div>
                        </div>","-124","html-slider-response","75","437924","0.0-71.0","yqf0h3qg10","4","91630","","","0","","","","ocean","images/D47.png"
"NaN","<div style=""width:500px;"">
                            <p style=""font-size:50px; font-weight:bold;""
                            >ocean</p>
                            <div style=""width:240px; margin: auto;"">
                                <img src=""images/D64.png"" style= ""width:200px""alt=""img"">
                            </div>
                        </div>","-155","html-slider-response","76","439424","0.0-72.0","yqf0h3qg10","4","91630","","","0","","","","ocean","images/D64.png"
"NaN","<div style=""width:500px;"">
                            <p style=""font-size:50px; font-weight:bold;""
                            >beach</p>
                            <div style=""width:240px; margin: auto;"">
                                <img src=""images/D16.png"" style= ""width:200px""alt=""img"">
                            </div>
                        </div>","51","html-slider-response","77","442025","0.0-73.0","yqf0h3qg10","4","91630","","","0","","","","beach","images/D16.png"
"NaN","<div style=""width:500px;"">
                            <p style=""font-size:50px; font-weight:bold;""
                            >beach</p>
                            <div style=""width:240px; margin: auto;"">
                                <img src=""images/D1.png"" style= ""width:200px""alt=""img"">
                            </div>
                        </div>","-162","html-slider-response","78","443957","0.0-74.0","yqf0h3qg10","4","91630","","","0","","","","beach","images/D1.png"
"NaN","<div style=""width:500px;"">
                            <p style=""font-size:50px; font-weight:bold;""
                            >beach</p>
                            <div style=""width:240px; margin: auto;"">
                                <img src=""images/D103.png"" style= ""width:200px""alt=""img"">
                            </div>
                        </div>","-22","html-slider-response","79","447691","0.0-75.0","yqf0h3qg10","4","91630","","","0","","","","beach","images/D103.png"
"NaN","<div style=""width:500px;"">
                            <p style=""font-size:50px; font-weight:bold;""
                            >ocean</p>
                            <div style=""width:240px; margin: auto;"">
                                <img src=""images/D18.png"" style= ""width:200px""alt=""img"">
                            </div>
                        </div>","38","html-slider-response","80","450675","0.0-76.0","yqf0h3qg10","4","91630","","","0","","","","ocean","images/D18.png"
"NaN","<div style=""width:500px;"">
                            <p style=""font-size:50px; font-weight:bold;""
                            >ocean</p>
                            <div style=""width:240px; margin: auto;"">
                                <img src=""images/D8.png"" style= ""width:200px""alt=""img"">
                            </div>
                        </div>","-40","html-slider-response","81","452658","0.0-77.0","yqf0h3qg10","4","91630","","","0","","","","ocean","images/D8.png"
"NaN","<div style=""width:500px;"">
                            <p style=""font-size:50px; font-weight:bold;""
                            >ocean</p>
                            <div style=""width:240px; margin: auto;"">
                                <img src=""images/D104.png"" style= ""width:200px""alt=""img"">
                            </div>
                        </div>","37","html-slider-response","82","455192","0.0-78.0","yqf0h3qg10","4","91630","","","0","","","","ocean","images/D104.png"
"NaN","<div style=""width:500px;"">
                            <p style=""font-size:50px; font-weight:bold;""
                            >beach</p>
                            <div style=""width:240px; margin: auto;"">
                                <img src=""images/D26.png"" style= ""width:200px""alt=""img"">
                            </div>
                        </div>","-166","html-slider-response","83","457741","0.0-79.0","yqf0h3qg10","4","91630","","","0","","","","beach","images/D26.png"
"NaN","<div style=""width:500px;"">
                            <p style=""font-size:50px; font-weight:bold;""
                            >ocean</p>
                            <div style=""width:240px; margin: auto;"">
                                <img src=""images/D111.png"" style= ""width:200px""alt=""img"">
                            </div>
                        </div>","114","html-slider-response","84","459875","0.0-80.0","yqf0h3qg10","4","91630","","","0","","","","ocean","images/D111.png"
"NaN","<div style=""width:500px;"">
                            <p style=""font-size:50px; font-weight:bold;""
                            >beach</p>
                            <div style=""width:240px; margin: auto;"">
                                <img src=""images/D101.png"" style= ""width:200px""alt=""img"">
                            </div>
                        </div>","-19","html-slider-response","85","461924","0.0-81.0","yqf0h3qg10","4","91630","","","0","","","","beach","images/D101.png"
"NaN","<div style=""width:500px;"">
                            <p style=""font-size:50px; font-weight:bold;""
                            >beach</p>
                            <div style=""width:240px; margin: auto;"">
                                <img src=""images/D51.png"" style= ""width:200px""alt=""img"">
                            </div>
                        </div>","25","html-slider-response","86","464675","0.0-82.0","yqf0h3qg10","4","91630","","","0","","","","beach","images/D51.png"
"NaN","<div style=""width:500px;"">
                            <p style=""font-size:50px; font-weight:bold;""
                            >ocean</p>
                            <div style=""width:240px; margin: auto;"">
                                <img src=""images/D11.png"" style= ""width:200px""alt=""img"">
                            </div>
                        </div>","-34","html-slider-response","87","467625","0.0-83.0","yqf0h3qg10","4","91630","","","0","","","","ocean","images/D11.png"
"NaN","<div style=""width:500px;"">
                            <p style=""font-size:50px; font-weight:bold;""
                            >ocean</p>
                            <div style=""width:240px; margin: auto;"">
                                <img src=""images/D1.png"" style= ""width:200px""alt=""img"">
                            </div>
                        </div>","-114","html-slider-response","88","472308","0.0-84.0","yqf0h3qg10","4","91630","","","0","","","","ocean","images/D1.png"
"NaN","<div style=""width:500px;"">
                            <p style=""font-size:50px; font-weight:bold;""
                            >ocean</p>
                            <div style=""width:240px; margin: auto;"">
                                <img src=""images/D85.png"" style= ""width:200px""alt=""img"">
                            </div>
                        </div>","25","html-slider-response","89","475024","0.0-85.0","yqf0h3qg10","4","91630","","","0","","","","ocean","images/D85.png"
"NaN","<div style=""width:500px;"">
                            <p style=""font-size:50px; font-weight:bold;""
                            >beach</p>
                            <div style=""width:240px; margin: auto;"">
                                <img src=""images/D56.png"" style= ""width:200px""alt=""img"">
                            </div>
                        </div>","-111","html-slider-response","90","477091","0.0-86.0","yqf0h3qg10","4","91630","","","0","","","","beach","images/D56.png"
"NaN","<div style=""width:500px;"">
                            <p style=""font-size:50px; font-weight:bold;""
                            >beach</p>
                            <div style=""width:240px; margin: auto;"">
                                <img src=""images/D52.png"" style= ""width:200px""alt=""img"">
                            </div>
                        </div>","42","html-slider-response","91","479608","0.0-87.0","yqf0h3qg10","4","91630","","","0","","","","beach","images/D52.png"
"NaN","<div style=""width:500px;"">
                            <p style=""font-size:50px; font-weight:bold;""
                            >beach</p>
                            <div style=""width:240px; margin: auto;"">
                                <img src=""images/D85.png"" style= ""width:200px""alt=""img"">
                            </div>
                        </div>","80","html-slider-response","92","482458","0.0-88.0","yqf0h3qg10","4","91630","","","0","","","","beach","images/D85.png"
"NaN","<div style=""width:500px;"">
                            <p style=""font-size:50px; font-weight:bold;""
                            >ocean</p>
                            <div style=""width:240px; margin: auto;"">
                                <img src=""images/D77.png"" style= ""width:200px""alt=""img"">
                            </div>
                        </div>","-15","html-slider-response","93","484658","0.0-89.0","yqf0h3qg10","4","91630","","","0","","","","ocean","images/D77.png"
"NaN","<div style=""width:500px;"">
                            <p style=""font-size:50px; font-weight:bold;""
                            >ocean</p>
                            <div style=""width:240px; margin: auto;"">
                                <img src=""images/D36.png"" style= ""width:200px""alt=""img"">
                            </div>
                        </div>","-162","html-slider-response","94","486708","0.0-90.0","yqf0h3qg10","4","91630","","","0","","","","ocean","images/D36.png"
"NaN","<div style=""width:500px;"">
                            <p style=""font-size:50px; font-weight:bold;""
                            >beach</p>
                            <div style=""width:240px; margin: auto;"">
                                <img src=""images/D96.png"" style= ""width:200px""alt=""img"">
                            </div>
                        </div>","-194","html-slider-response","95","488408","0.0-91.0","yqf0h3qg10","4","91630","","","0","","","","beach","images/D96.png"
"NaN","<div style=""width:500px;"">
                            <p style=""font-size:50px; font-weight:bold;""
                            >ocean</p>
                            <div style=""width:240px; margin: auto;"">
                                <img src=""images/D20.png"" style= ""width:200px""alt=""img"">
                            </div>
                        </div>","-31","html-slider-response","96","490825","0.0-92.0","yqf0h3qg10","4","91630","","","0","","","","ocean","images/D20.png"
"NaN","<div style=""width:500px;"">
                            <p style=""font-size:50px; font-weight:bold;""
                            >ocean</p>
                            <div style=""width:240px; margin: auto;"">
                                <img src=""images/D26.png"" style= ""width:200px""alt=""img"">
                            </div>
                        </div>","-154","html-slider-response","97","493041","0.0-93.0","yqf0h3qg10","4","91630","","","0","","","","ocean","images/D26.png"
"NaN","<div style=""width:500px;"">
                            <p style=""font-size:50px; font-weight:bold;""
                            >beach</p>
                            <div style=""width:240px; margin: auto;"">
                                <img src=""images/D8.png"" style= ""width:200px""alt=""img"">
                            </div>
                        </div>","45","html-slider-response","98","495241","0.0-94.0","yqf0h3qg10","4","91630","","","0","","","","beach","images/D8.png"
"NaN","<div style=""width:500px;"">
                            <p style=""font-size:50px; font-weight:bold;""
                            >ocean</p>
                            <div style=""width:240px; margin: auto;"">
                                <img src=""images/D95.png"" style= ""width:200px""alt=""img"">
                            </div>
                        </div>","-170","html-slider-response","99","497174","0.0-95.0","yqf0h3qg10","4","91630","","","0","","","","ocean","images/D95.png"
"NaN","<div style=""width:500px;"">
                            <p style=""font-size:50px; font-weight:bold;""
                            >beach</p>
                            <div style=""width:240px; margin: auto;"">
                                <img src=""images/D36.png"" style= ""width:200px""alt=""img"">
                            </div>
                        </div>","34","html-slider-response","100","499675","0.0-96.0","yqf0h3qg10","4","91630","","","0","","","","beach","images/D36.png"
"NaN","<div style=""width:500px;"">
                            <p style=""font-size:50px; font-weight:bold;""
                            >ocean</p>
                            <div style=""width:240px; margin: auto;"">
                                <img src=""images/D51.png"" style= ""width:200px""alt=""img"">
                            </div>
                        </div>","24","html-slider-response","101","502174","0.0-97.0","yqf0h3qg10","4","91630","","","0","","","","ocean","images/D51.png"
"NaN","<div style=""width:500px;"">
                            <p style=""font-size:50px; font-weight:bold;""
                            >beach</p>
                            <div style=""width:240px; margin: auto;"">
                                <img src=""images/D94.png"" style= ""width:200px""alt=""img"">
                            </div>
                        </div>","-149","html-slider-response","102","504008","0.0-98.0","yqf0h3qg10","4","91630","","","0","","","","beach","images/D94.png"
"NaN","<div style=""width:500px;"">
                            <p style=""font-size:50px; font-weight:bold;""
                            >beach</p>
                            <div style=""width:240px; margin: auto;"">
                                <img src=""images/D77.png"" style= ""width:200px""alt=""img"">
                            </div>
                        </div>","-22","html-slider-response","103","506941","0.0-99.0","yqf0h3qg10","4","91630","","","0","","","","beach","images/D77.png"
"NaN","<div style=""width:500px;"">
                            <p style=""font-size:50px; font-weight:bold;""
                            >ocean</p>
                            <div style=""width:240px; margin: auto;"">
                                <img src=""images/D4.png"" style= ""width:200px""alt=""img"">
                            </div>
                        </div>","59","html-slider-response","104","509207","0.0-100.0","yqf0h3qg10","4","91630","","","0","","","","ocean","images/D4.png"
"NaN","<div style=""width:500px;"">
                            <p style=""font-size:50px; font-weight:bold;""
                            >beach</p>
                            <div style=""width:240px; margin: auto;"">
                                <img src=""images/D20.png"" style= ""width:200px""alt=""img"">
                            </div>
                        </div>","35","html-slider-response","105","512991","0.0-101.0","yqf0h3qg10","4","91630","","","0","","","","beach","images/D20.png"
"NaN","<div style=""width:500px;"">
                            <p style=""font-size:50px; font-weight:bold;""
                            >ocean</p>
                            <div style=""width:240px; margin: auto;"">
                                <img src=""images/D17.png"" style= ""width:200px""alt=""img"">
                            </div>
                        </div>","34","html-slider-response","106","515858","0.0-102.0","yqf0h3qg10","4","91630","","","0","","","","ocean","images/D17.png"
"NaN","<div style=""width:500px;"">
                            <p style=""font-size:50px; font-weight:bold;""
                            >ocean</p>
                            <div style=""width:240px; margin: auto;"">
                                <img src=""images/D22.png"" style= ""width:200px""alt=""img"">
                            </div>
                        </div>","100","html-slider-response","107","517925","0.0-103.0","yqf0h3qg10","4","91630","","","0","","","","ocean","images/D22.png"
"NaN","<div style=""width:500px;"">
                            <p style=""font-size:50px; font-weight:bold;""
                            >ocean</p>
                            <div style=""width:240px; margin: auto;"">
                                <img src=""images/D19.png"" style= ""width:200px""alt=""img"">
                            </div>
                        </div>","-14","html-slider-response","108","519923","0.0-104.0","yqf0h3qg10","4","91630","","","0","","","","ocean","images/D19.png"
"NaN","<div style=""width:500px;"">
                            <p style=""font-size:50px; font-weight:bold;""
                            >beach</p>
                            <div style=""width:240px; margin: auto;"">
                                <img src=""images/D111.png"" style= ""width:200px""alt=""img"">
                            </div>
                        </div>","112","html-slider-response","109","521708","0.0-105.0","yqf0h3qg10","4","91630","","","0","","","","beach","images/D111.png"
"NaN","<div style=""width:500px;"">
                            <p style=""font-size:50px; font-weight:bold;""
                            >beach</p>
                            <div style=""width:240px; margin: auto;"">
                                <img src=""images/D92.png"" style= ""width:200px""alt=""img"">
                            </div>
                        </div>","112","html-slider-response","110","523141","0.0-106.0","yqf0h3qg10","4","91630","","","0","","","","beach","images/D92.png"
"NaN","<div style=""width:500px;"">
                            <p style=""font-size:50px; font-weight:bold;""
                            >ocean</p>
                            <div style=""width:240px; margin: auto;"">
                                <img src=""images/D74.png"" style= ""width:200px""alt=""img"">
                            </div>
                        </div>","93","html-slider-response","111","524957","0.0-107.0","yqf0h3qg10","4","91630","","","0","","","","ocean","images/D74.png"
"NaN","<div style=""width:500px;"">
                            <p style=""font-size:50px; font-weight:bold;""
                            >beach</p>
                            <div style=""width:240px; margin: auto;"">
                                <img src=""images/D48.png"" style= ""width:200px""alt=""img"">
                            </div>
                        </div>","109","html-slider-response","112","526941","0.0-108.0","yqf0h3qg10","4","91630","","","0","","","","beach","images/D48.png"
"NaN","<div style=""width:500px;"">
                            <p style=""font-size:50px; font-weight:bold;""
                            >beach</p>
                            <div style=""width:240px; margin: auto;"">
                                <img src=""images/D55.png"" style= ""width:200px""alt=""img"">
                            </div>
                        </div>","26","html-slider-response","113","529041","0.0-109.0","yqf0h3qg10","4","91630","","","0","","","","beach","images/D55.png"
"NaN","<div style=""width:500px;"">
                            <p style=""font-size:50px; font-weight:bold;""
                            >beach</p>
                            <div style=""width:240px; margin: auto;"">
                                <img src=""images/D83.png"" style= ""width:200px""alt=""img"">
                            </div>
                        </div>","-28","html-slider-response","114","530591","0.0-110.0","yqf0h3qg10","4","91630","","","0","","","","beach","images/D83.png"
"NaN","<div style=""width:500px;"">
                            <p style=""font-size:50px; font-weight:bold;""
                            >beach</p>
                            <div style=""width:240px; margin: auto;"">
                                <img src=""images/D102.png"" style= ""width:200px""alt=""img"">
                            </div>
                        </div>","-116","html-slider-response","115","532491","0.0-111.0","yqf0h3qg10","4","91630","","","0","","","","beach","images/D102.png"
"NaN","<div style=""width:500px;"">
                            <p style=""font-size:50px; font-weight:bold;""
                            >beach</p>
                            <div style=""width:240px; margin: auto;"">
                                <img src=""images/D46.png"" style= ""width:200px""alt=""img"">
                            </div>
                        </div>","-174","html-slider-response","116","534440","0.0-112.0","yqf0h3qg10","4","91630","","","0","","","","beach","images/D46.png"
"NaN","<div style=""width:500px;"">
                            <p style=""font-size:50px; font-weight:bold;""
                            >beach</p>
                            <div style=""width:240px; margin: auto;"">
                                <img src=""images/D74.png"" style= ""width:200px""alt=""img"">
                            </div>
                        </div>","112","html-slider-response","117","537091","0.0-113.0","yqf0h3qg10","4","91630","","","0","","","","beach","images/D74.png"
"NaN","<div style=""width:500px;"">
                            <p style=""font-size:50px; font-weight:bold;""
                            >beach</p>
                            <div style=""width:240px; margin: auto;"">
                                <img src=""images/D95.png"" style= ""width:200px""alt=""img"">
                            </div>
                        </div>","-29","html-slider-response","118","539091","0.0-114.0","yqf0h3qg10","4","91630","","","0","","","","beach","images/D95.png"
"NaN","<div style=""width:500px;"">
                            <p style=""font-size:50px; font-weight:bold;""
                            >beach</p>
                            <div style=""width:240px; margin: auto;"">
                                <img src=""images/D19.png"" style= ""width:200px""alt=""img"">
                            </div>
                        </div>","110","html-slider-response","119","540924","0.0-115.0","yqf0h3qg10","4","91630","","","0","","","","beach","images/D19.png"
"NaN","<div style=""width:500px;"">
                            <p style=""font-size:50px; font-weight:bold;""
                            >ocean</p>
                            <div style=""width:240px; margin: auto;"">
                                <img src=""images/D96.png"" style= ""width:200px""alt=""img"">
                            </div>
                        </div>","-50","html-slider-response","120","542991","0.0-116.0","yqf0h3qg10","4","91630","","","0","","","","ocean","images/D96.png"
"NaN","<div style=""width:500px;"">
                            <p style=""font-size:50px; font-weight:bold;""
                            >ocean</p>
                            <div style=""width:240px; margin: auto;"">
                                <img src=""images/D16.png"" style= ""width:200px""alt=""img"">
                            </div>
                        </div>","36","html-slider-response","121","545391","0.0-117.0","yqf0h3qg10","4","91630","","","0","","","","ocean","images/D16.png"
"NaN","<div style=""width:500px;"">
                            <p style=""font-size:50px; font-weight:bold;""
                            >beach</p>
                            <div style=""width:240px; margin: auto;"">
                                <img src=""images/D65.png"" style= ""width:200px""alt=""img"">
                            </div>
                        </div>","-32","html-slider-response","122","550290","0.0-118.0","yqf0h3qg10","4","91630","","","0","","","","beach","images/D65.png"
"NaN","<div style=""width:500px;"">
                            <p style=""font-size:50px; font-weight:bold;""
                            >beach</p>
                            <div style=""width:240px; margin: auto;"">
                                <img src=""images/D78.png"" style= ""width:200px""alt=""img"">
                            </div>
                        </div>","-103","html-slider-response","123","552040","0.0-119.0","yqf0h3qg10","4","91630","","","0","","","","beach","images/D78.png"
"NaN","<div style=""width:500px;"">
                            <p style=""font-size:50px; font-weight:bold;""
                            >ocean</p>
                            <div style=""width:240px; margin: auto;"">
                                <img src=""images/D103.png"" style= ""width:200px""alt=""img"">
                            </div>
                        </div>","37","html-slider-response","124","553757","0.0-120.0","yqf0h3qg10","4","91630","","","0","","","","ocean","images/D103.png"
"NaN","<div style=""width:500px;"">
                            <p style=""font-size:50px; font-weight:bold;""
                            >beach</p>
                            <div style=""width:240px; margin: auto;"">
                                <img src=""images/D104.png"" style= ""width:200px""alt=""img"">
                            </div>
                        </div>","112","html-slider-response","125","555589","0.0-121.0","yqf0h3qg10","4","91630","","","0","","","","beach","images/D104.png"
"NaN","<div style=""width:500px;"">
                            <p style=""font-size:50px; font-weight:bold;""
                            >ocean</p>
                            <div style=""width:240px; margin: auto;"">
                                <img src=""images/D25.png"" style= ""width:200px""alt=""img"">
                            </div>
                        </div>","-170","html-slider-response","126","557373","0.0-122.0","yqf0h3qg10","4","91630","","","0","","","","ocean","images/D25.png"
"NaN","<div style=""width:500px;"">
                            <p style=""font-size:50px; font-weight:bold;""
                            >beach</p>
                            <div style=""width:240px; margin: auto;"">
                                <img src=""images/D76.png"" style= ""width:200px""alt=""img"">
                            </div>
                        </div>","-27","html-slider-response","127","567990","0.0-123.0","yqf0h3qg10","4","91630","","","0","","","","beach","images/D76.png"
"NaN","<div style=""width:500px;"">
                            <p style=""font-size:50px; font-weight:bold;""
                            >beach</p>
                            <div style=""width:240px; margin: auto;"">
                                <img src=""images/D79.png"" style= ""width:200px""alt=""img"">
                            </div>
                        </div>","68","html-slider-response","128","570124","0.0-124.0","yqf0h3qg10","4","91630","","","0","","","","beach","images/D79.png"
"NaN","<div style=""width:500px;"">
                            <p style=""font-size:50px; font-weight:bold;""
                            >beach</p>
                            <div style=""width:240px; margin: auto;"">
                                <img src=""images/D4.png"" style= ""width:200px""alt=""img"">
                            </div>
                        </div>","115","html-slider-response","129","572874","0.0-125.0","yqf0h3qg10","4","91630","","","0","","","","beach","images/D4.png"
"NaN","<div style=""width:500px;"">
                            <p style=""font-size:50px; font-weight:bold;""
                            >beach</p>
                            <div style=""width:240px; margin: auto;"">
                                <img src=""images/D81.png"" style= ""width:200px""alt=""img"">
                            </div>
                        </div>","37","html-slider-response","130","591255","0.0-126.0","yqf0h3qg10","4","91630","","","0","","","","beach","images/D81.png"
"NaN","<div style=""width:500px;"">
                            <p style=""font-size:50px; font-weight:bold;""
                            >ocean</p>
                            <div style=""width:240px; margin: auto;"">
                                <img src=""images/D83.png"" style= ""width:200px""alt=""img"">
                            </div>
                        </div>","-16","html-slider-response","131","592907","0.0-127.0","yqf0h3qg10","4","91630","","","0","","","","ocean","images/D83.png"
"NaN","<div style=""width:500px;"">
                            <p style=""font-size:50px; font-weight:bold;""
                            >beach</p>
                            <div style=""width:240px; margin: auto;"">
                                <img src=""images/D87.png"" style= ""width:200px""alt=""img"">
                            </div>
                        </div>","110","html-slider-response","132","594907","0.0-128.0","yqf0h3qg10","4","91630","","","0","","","","beach","images/D87.png"
"NaN","<div style=""width:500px;"">
                            <p style=""font-size:50px; font-weight:bold;""
                            >ocean</p>
                            <div style=""width:240px; margin: auto;"">
                                <img src=""images/D35.png"" style= ""width:200px""alt=""img"">
                            </div>
                        </div>","132","html-slider-response","133","596505","0.0-129.0","yqf0h3qg10","4","91630","","","0","","","","ocean","images/D35.png"
"NaN","<div style=""width:500px;"">
                            <p style=""font-size:50px; font-weight:bold;""
                            >beach</p>
                            <div style=""width:240px; margin: auto;"">
                                <img src=""images/D18.png"" style= ""width:200px""alt=""img"">
                            </div>
                        </div>","38","html-slider-response","134","598140","0.0-130.0","yqf0h3qg10","4","91630","","","0","","","","beach","images/D18.png"
"NaN","<div style=""width:500px;"">
                            <p style=""font-size:50px; font-weight:bold;""
                            >ocean</p>
                            <div style=""width:240px; margin: auto;"">
                                <img src=""images/D49.png"" style= ""width:200px""alt=""img"">
                            </div>
                        </div>","-27","html-slider-response","135","600223","0.0-131.0","yqf0h3qg10","4","91630","","","0","","","","ocean","images/D49.png"
"NaN","<div style=""width:500px;"">
                            <p style=""font-size:50px; font-weight:bold;""
                            >beach</p>
                            <div style=""width:240px; margin: auto;"">
                                <img src=""images/D34.png"" style= ""width:200px""alt=""img"">
                            </div>
                        </div>","82","html-slider-response","136","602640","0.0-132.0","yqf0h3qg10","4","91630","","","0","","","","beach","images/D34.png"
"NaN","<div style=""width:500px;"">
                            <p style=""font-size:50px; font-weight:bold;""
                            >ocean</p>
                            <div style=""width:240px; margin: auto;"">
                                <img src=""images/D66.png"" style= ""width:200px""alt=""img"">
                            </div>
                        </div>","133","html-slider-response","137","604273","0.0-133.0","yqf0h3qg10","4","91630","","","0","","","","ocean","images/D66.png"
"NaN","<div style=""width:500px;"">
                            <p style=""font-size:50px; font-weight:bold;""
                            >beach</p>
                            <div style=""width:240px; margin: auto;"">
                                <img src=""images/D57.png"" style= ""width:200px""alt=""img"">
                            </div>
                        </div>","-21","html-slider-response","138","605990","0.0-134.0","yqf0h3qg10","4","91630","","","0","","","","beach","images/D57.png"
"NaN","<div style=""width:500px;"">
                            <p style=""font-size:50px; font-weight:bold;""
                            >ocean</p>
                            <div style=""width:240px; margin: auto;"">
                                <img src=""images/D94.png"" style= ""width:200px""alt=""img"">
                            </div>
                        </div>","-151","html-slider-response","139","607907","0.0-135.0","yqf0h3qg10","4","91630","","","0","","","","ocean","images/D94.png"
"NaN","<div style=""width:500px;"">
                            <p style=""font-size:50px; font-weight:bold;""
                            >beach</p>
                            <div style=""width:240px; margin: auto;"">
                                <img src=""images/D84.png"" style= ""width:200px""alt=""img"">
                            </div>
                        </div>","117","html-slider-response","140","610090","0.0-136.0","yqf0h3qg10","4","91630","","","0","","","","beach","images/D84.png"
"NaN","<div style=""width:500px;"">
                            <p style=""font-size:50px; font-weight:bold;""
                            >beach</p>
                            <div style=""width:240px; margin: auto;"">
                                <img src=""images/D47.png"" style= ""width:200px""alt=""img"">
                            </div>
                        </div>","-30","html-slider-response","141","612490","0.0-137.0","yqf0h3qg10","4","91630","","","0","","","","beach","images/D47.png"
"NaN","<div style=""width:500px;"">
                            <p style=""font-size:50px; font-weight:bold;""
                            >beach</p>
                            <div style=""width:240px; margin: auto;"">
                                <img src=""images/D64.png"" style= ""width:200px""alt=""img"">
                            </div>
                        </div>","-17","html-slider-response","142","618072","0.0-138.0","yqf0h3qg10","4","91630","","","0","","","","beach","images/D64.png"
"NaN","<div style=""width:500px;"">
                            <p style=""font-size:50px; font-weight:bold;""
                            >ocean</p>
                            <div style=""width:240px; margin: auto;"">
                                <img src=""images/D52.png"" style= ""width:200px""alt=""img"">
                            </div>
                        </div>","64","html-slider-response","143","619890","0.0-139.0","yqf0h3qg10","4","91630","","","0","","","","ocean","images/D52.png"
"NaN","<div style=""width:500px;"">
                            <p style=""font-size:50px; font-weight:bold;""
                            >ocean</p>
                            <div style=""width:240px; margin: auto;"">
                                <img src=""images/D75.png"" style= ""width:200px""alt=""img"">
                            </div>
                        </div>","142","html-slider-response","144","623857","0.0-140.0","yqf0h3qg10","4","91630","","","0","","","","ocean","images/D75.png"
"NaN","<div style=""width:500px;"">
                            <p style=""font-size:50px; font-weight:bold;""
                            >ocean</p>
                            <div style=""width:240px; margin: auto;"">
                                <img src=""images/D79.png"" style= ""width:200px""alt=""img"">
                            </div>
                        </div>","-32","html-slider-response","145","630990","0.0-141.0","yqf0h3qg10","4","91630","","","0","","","","ocean","images/D79.png"
"NaN","<div style=""width:500px;"">
                            <p style=""font-size:50px; font-weight:bold;""
                            >beach</p>
                            <div style=""width:240px; margin: auto;"">
                                <img src=""images/D37.png"" style= ""width:200px""alt=""img"">
                            </div>
                        </div>","138","html-slider-response","146","634957","0.0-142.0","yqf0h3qg10","4","91630","","","0","","","","beach","images/D37.png"
"NaN","<div style=""width:500px;"">
                            <p style=""font-size:50px; font-weight:bold;""
                            >beach</p>
                            <div style=""width:240px; margin: auto;"">
                                <img src=""images/D25.png"" style= ""width:200px""alt=""img"">
                            </div>
                        </div>","-156","html-slider-response","147","637023","0.0-143.0","yqf0h3qg10","4","91630","","","0","","","","beach","images/D25.png"
"NaN","<div style=""width:500px;"">
                            <p style=""font-size:50px; font-weight:bold;""
                            >ocean</p>
                            <div style=""width:240px; margin: auto;"">
                                <img src=""images/D76.png"" style= ""width:200px""alt=""img"">
                            </div>
                        </div>","-19","html-slider-response","148","639190","0.0-144.0","yqf0h3qg10","4","91630","","","0","","","","ocean","images/D76.png"
"NaN","<div style=""width:500px;"">
                            <p style=""font-size:50px; font-weight:bold;""
                            >ocean</p>
                            <div style=""width:240px; margin: auto;"">
                                <img src=""images/D14.png"" style= ""width:200px""alt=""img"">
                            </div>
                        </div>","-87","html-slider-response","149","641356","0.0-145.0","yqf0h3qg10","4","91630","","","0","","","","ocean","images/D14.png"
"NaN","<div style=""width:500px;"">
                            <p style=""font-size:50px; font-weight:bold;""
                            >ocean</p>
                            <div style=""width:240px; margin: auto;"">
                                <img src=""images/D92.png"" style= ""width:200px""alt=""img"">
                            </div>
                        </div>","144","html-slider-response","150","645190","0.0-146.0","yqf0h3qg10","4","91630","","","0","","","","ocean","images/D92.png"
"NaN","<div style=""width:500px;"">
                            <p style=""font-size:50px; font-weight:bold;""
                            >beach</p>
                            <div style=""width:240px; margin: auto;"">
                                <img src=""images/D75.png"" style= ""width:200px""alt=""img"">
                            </div>
                        </div>","77","html-slider-response","151","647240","0.0-147.0","yqf0h3qg10","4","91630","","","0","","","","beach","images/D75.png"
"NaN","<div style=""width:500px;"">
                            <p style=""font-size:50px; font-weight:bold;""
                            >beach</p>
                            <div style=""width:240px; margin: auto;"">
                                <img src=""images/D17.png"" style= ""width:200px""alt=""img"">
                            </div>
                        </div>","49","html-slider-response","152","649423","0.0-148.0","yqf0h3qg10","4","91630","","","0","","","","beach","images/D17.png"
"NaN","<div style=""width:500px;"">
                            <p style=""font-size:50px; font-weight:bold;""
                            >ocean</p>
                            <div style=""width:240px; margin: auto;"">
                                <img src=""images/D34.png"" style= ""width:200px""alt=""img"">
                            </div>
                        </div>","-58","html-slider-response","153","651640","0.0-149.0","yqf0h3qg10","4","91630","","","0","","","","ocean","images/D34.png"
"NaN","<div style=""width:500px;"">
                            <p style=""font-size:50px; font-weight:bold;""
                            >ocean</p>
                            <div style=""width:240px; margin: auto;"">
                                <img src=""images/D57.png"" style= ""width:200px""alt=""img"">
                            </div>
                        </div>","-176","html-slider-response","154","653439","0.0-150.0","yqf0h3qg10","4","91630","","","0","","","","ocean","images/D57.png"
"NaN","<div style=""width:500px;"">
                            <p style=""font-size:50px; font-weight:bold;""
                            >beach</p>
                            <div style=""width:240px; margin: auto;"">
                                <img src=""images/D105.png"" style= ""width:200px""alt=""img"">
                            </div>
                        </div>","-37","html-slider-response","155","656273","0.0-151.0","yqf0h3qg10","4","91630","","","0","","","","beach","images/D105.png"
"NaN","<div style=""width:500px;"">
                            <p style=""font-size:50px; font-weight:bold;""
                            >beach</p>
                            <div style=""width:240px; margin: auto;"">
                                <img src=""images/D22.png"" style= ""width:200px""alt=""img"">
                            </div>
                        </div>","94","html-slider-response","156","658072","0.0-152.0","yqf0h3qg10","4","91630","","","0","","","","beach","images/D22.png"
"NaN","<div style=""width:500px;"">
                            <p style=""font-size:50px; font-weight:bold;""
                            >beach</p>
                            <div style=""width:240px; margin: auto;"">
                                <img src=""images/D66.png"" style= ""width:200px""alt=""img"">
                            </div>
                        </div>","142","html-slider-response","157","659739","0.0-153.0","yqf0h3qg10","4","91630","","","0","","","","beach","images/D66.png"
"NaN","<div style=""width:500px;"">
                            <p style=""font-size:50px; font-weight:bold;""
                            >beach</p>
                            <div style=""width:240px; margin: auto;"">
                                <img src=""images/D82.png"" style= ""width:200px""alt=""img"">
                            </div>
                        </div>","161","html-slider-response","158","661289","0.0-154.0","yqf0h3qg10","4","91630","","","0","","","","beach","images/D82.png"
"NaN","<div style=""width:500px;"">
                            <p style=""font-size:50px; font-weight:bold;""
                            >beach</p>
                            <div style=""width:240px; margin: auto;"">
                                <img src=""images/D53.png"" style= ""width:200px""alt=""img"">
                            </div>
                        </div>","-29","html-slider-response","159","663023","0.0-155.0","yqf0h3qg10","4","91630","","","0","","","","beach","images/D53.png"
"NaN","<div style=""width:500px;"">
                            <p style=""font-size:50px; font-weight:bold;""
                            >ocean</p>
                            <div style=""width:240px; margin: auto;"">
                                <img src=""images/D84.png"" style= ""width:200px""alt=""img"">
                            </div>
                        </div>","27","html-slider-response","160","664723","0.0-156.0","yqf0h3qg10","4","91630","","","0","","","","ocean","images/D84.png"
"NaN","<div style=""width:500px;"">
                            <p style=""font-size:50px; font-weight:bold;""
                            >ocean</p>
                            <div style=""width:240px; margin: auto;"">
                                <img src=""images/D82.png"" style= ""width:200px""alt=""img"">
                            </div>
                        </div>","62","html-slider-response","161","666639","0.0-157.0","yqf0h3qg10","4","91630","","","0","","","","ocean","images/D82.png"
"NaN","<div style=""width:500px;"">
                            <p style=""font-size:50px; font-weight:bold;""
                            >ocean</p>
                            <div style=""width:240px; margin: auto;"">
                                <img src=""images/D37.png"" style= ""width:200px""alt=""img"">
                            </div>
                        </div>","174","html-slider-response","162","669106","0.0-158.0","yqf0h3qg10","4","91630","","","0","","","","ocean","images/D37.png"
"NaN","<div style=""width:500px;"">
                            <p style=""font-size:50px; font-weight:bold;""
                            >beach</p>
                            <div style=""width:240px; margin: auto;"">
                                <img src=""images/D49.png"" style= ""width:200px""alt=""img"">
                            </div>
                        </div>","-140","html-slider-response","163","671122","0.0-159.0","yqf0h3qg10","4","91630","","","0","","","","beach","images/D49.png"
"NaN","<div style=""width:500px;"">
                            <p style=""font-size:50px; font-weight:bold;""
                            >ocean</p>
                            <div style=""width:240px; margin: auto;"">
                                <img src=""images/D56.png"" style= ""width:200px""alt=""img"">
                            </div>
                        </div>","-22","html-slider-response","164","673539","0.0-160.0","yqf0h3qg10","4","91630","","","0","","","","ocean","images/D56.png"
"NaN","<div style=""width:500px;"">
                            <p style=""font-size:50px; font-weight:bold;""
                            >beach</p>
                            <div style=""width:240px; margin: auto;"">
                                <img src=""images/D14.png"" style= ""width:200px""alt=""img"">
                            </div>
                        </div>","-105","html-slider-response","165","675323","0.0-161.0","yqf0h3qg10","4","91630","","","0","","","","beach","images/D14.png"
"NaN","<div style=""width:500px;"">
                            <p style=""font-size:50px; font-weight:bold;""
                            >ocean</p>
                            <div style=""width:240px; margin: auto;"">
                                <img src=""images/D53.png"" style= ""width:200px""alt=""img"">
                            </div>
                        </div>","18","html-slider-response","166","677823","0.0-162.0","yqf0h3qg10","4","91630","","","0","","","","ocean","images/D53.png"
"NaN","<div style=""width:500px;"">
                            <p style=""font-size:50px; font-weight:bold;""
                            >ocean</p>
                            <div style=""width:240px; margin: auto;"">
                                <img src=""images/D68.png"" style= ""width:200px""alt=""img"">
                            </div>
                        </div>","74","html-slider-response","167","679656","0.0-163.0","yqf0h3qg10","4","91630","","","0","","","","ocean","images/D68.png"
"NaN","<div style=""width:500px;"">
                            <p style=""font-size:50px; font-weight:bold;""
                            >ocean</p>
                            <div style=""width:240px; margin: auto;"">
                                <img src=""images/D65.png"" style= ""width:200px""alt=""img"">
                            </div>
                        </div>","-72","html-slider-response","168","682089","0.0-164.0","yqf0h3qg10","4","91630","","","0","","","","ocean","images/D65.png"
"NaN","<div style=""width:500px;"">
