"rt","stimulus","response","trial_type","trial_index","time_elapsed","internal_node_id","subject_id","condition_num","sona_id","success","question_order","slider_start","practiceTrial","practiceTrialNum","correct","concept","texture_id"
"3363","Welcome to our experiment!<p>At the bottom of this screen, you will see a button that says ""Begin Experiment"".<br>Please only click that button when you are ready to complete the 30 minute experiment in one sitting.</p><p> Once you click that button, it will not be possible to restart the experiment.","0","html-button-response","0","3365","0.0-0.0","vmt9r2cp7g","12","89012","","","","","","","",""
"1038","","","fullscreen","1","5407","0.0-1.0","vmt9r2cp7g","12","89012","true","","","","","","",""
"19218","","{""Consent"":[""<strong>I consent</strong>""]}","survey-multi-select","2","24628","0.0-2.0","vmt9r2cp7g","12","89012","","[0]","","","","","",""
"1295","Welcome! <p> This experiment involves two parts: demographic information, followed by the experimental task.<p> It will take about 30 minutes to complete both parts.","0","html-button-response","3","25924","0.0-3.0","vmt9r2cp7g","12","89012","","","","","","","",""
"14220","","{""Age"":""18"",""Gender"":""female"",""Race/ethnicity"":""white"",""Languages"":""English\n""}","survey-text","4","40155","0.0-4.0","vmt9r2cp7g","12","89012","","","","","","","",""
"15330","
                        <div style=""height:720px;"">
                            <div style='text-align:left; font-size:18px; line-height:25px; width: 1200px;'>
                                During this experiment you will be presented with a series of concepts, one at a time, from the set below:                             </div>

                            <div style=""text-align: left; width: 1200px;"">
                                <p style=""font-size:18px; line-height:20px; text-align:center; font-weight:bold "">working,
                                    leisure, driving, eating, sleeping
                                <p style=""font-size:18px; line-height:18px;""></p>
                            </div>
                            <div style='text-align:left; font-size:18px; line-height:25px; width: 1200px;'>
                                For each concept, you will be asked to rate how much you associate it with each of the visual textures
                                below on a scale from 'not at all' to 'very much'.                            </div>
                            <div style=""display: flex; justify-content: center; width: 90%;"">
                                <div style=""text-align: center; width: 1000px; display: grid; grid-template-columns: repeat(13, .5fr); gap: 5px; padding: 5px; margin: 0 auto;"">
                                    
                                    <div style=""width: 95%; aspect-ratio: 1;"">
                                        <img src=""images/D1.png"" style=""width: 100%; height: 100%; object-fit: cover;"">
                                    </div>
                                    
                                    <div style=""width: 95%; aspect-ratio: 1;"">
                                        <img src=""images/D4.png"" style=""width: 100%; height: 100%; object-fit: cover;"">
                                    </div>
                                    
                                    <div style=""width: 95%; aspect-ratio: 1;"">
                                        <img src=""images/D8.png"" style=""width: 100%; height: 100%; object-fit: cover;"">
                                    </div>
                                    
                                    <div style=""width: 95%; aspect-ratio: 1;"">
                                        <img src=""images/D11.png"" style=""width: 100%; height: 100%; object-fit: cover;"">
                                    </div>
                                    
                                    <div style=""width: 95%; aspect-ratio: 1;"">
                                        <img src=""images/D14.png"" style=""width: 100%; height: 100%; object-fit: cover;"">
                                    </div>
                                    
                                    <div style=""width: 95%; aspect-ratio: 1;"">
                                        <img src=""images/D16.png"" style=""width: 100%; height: 100%; object-fit: cover;"">
                                    </div>
                                    
                                    <div style=""width: 95%; aspect-ratio: 1;"">
                                        <img src=""images/D17.png"" style=""width: 100%; height: 100%; object-fit: cover;"">
                                    </div>
                                    
                                    <div style=""width: 95%; aspect-ratio: 1;"">
                                        <img src=""images/D18.png"" style=""width: 100%; height: 100%; object-fit: cover;"">
                                    </div>
                                    
                                    <div style=""width: 95%; aspect-ratio: 1;"">
                                        <img src=""images/D19.png"" style=""width: 100%; height: 100%; object-fit: cover;"">
                                    </div>
                                    
                                    <div style=""width: 95%; aspect-ratio: 1;"">
                                        <img src=""images/D20.png"" style=""width: 100%; height: 100%; object-fit: cover;"">
                                    </div>
                                    
                                    <div style=""width: 95%; aspect-ratio: 1;"">
                                        <img src=""images/D22.png"" style=""width: 100%; height: 100%; object-fit: cover;"">
                                    </div>
                                    
                                    <div style=""width: 95%; aspect-ratio: 1;"">
                                        <img src=""images/D25.png"" style=""width: 100%; height: 100%; object-fit: cover;"">
                                    </div>
                                    
                                    <div style=""width: 95%; aspect-ratio: 1;"">
                                        <img src=""images/D26.png"" style=""width: 100%; height: 100%; object-fit: cover;"">
                                    </div>
                                    
                                    <div style=""width: 95%; aspect-ratio: 1;"">
                                        <img src=""images/D34.png"" style=""width: 100%; height: 100%; object-fit: cover;"">
                                    </div>
                                    
                                    <div style=""width: 95%; aspect-ratio: 1;"">
                                        <img src=""images/D35.png"" style=""width: 100%; height: 100%; object-fit: cover;"">
                                    </div>
                                    
                                    <div style=""width: 95%; aspect-ratio: 1;"">
                                        <img src=""images/D36.png"" style=""width: 100%; height: 100%; object-fit: cover;"">
                                    </div>
                                    
                                    <div style=""width: 95%; aspect-ratio: 1;"">
                                        <img src=""images/D37.png"" style=""width: 100%; height: 100%; object-fit: cover;"">
                                    </div>
                                    
                                    <div style=""width: 95%; aspect-ratio: 1;"">
                                        <img src=""images/D46.png"" style=""width: 100%; height: 100%; object-fit: cover;"">
                                    </div>
                                    
                                    <div style=""width: 95%; aspect-ratio: 1;"">
                                        <img src=""images/D47.png"" style=""width: 100%; height: 100%; object-fit: cover;"">
                                    </div>
                                    
                                    <div style=""width: 95%; aspect-ratio: 1;"">
                                        <img src=""images/D48.png"" style=""width: 100%; height: 100%; object-fit: cover;"">
                                    </div>
                                    
                                    <div style=""width: 95%; aspect-ratio: 1;"">
                                        <img src=""images/D49.png"" style=""width: 100%; height: 100%; object-fit: cover;"">
                                    </div>
                                    
                                    <div style=""width: 95%; aspect-ratio: 1;"">
                                        <img src=""images/D51.png"" style=""width: 100%; height: 100%; object-fit: cover;"">
                                    </div>
                                    
                                    <div style=""width: 95%; aspect-ratio: 1;"">
                                        <img src=""images/D52.png"" style=""width: 100%; height: 100%; object-fit: cover;"">
                                    </div>
                                    
                                    <div style=""width: 95%; aspect-ratio: 1;"">
                                        <img src=""images/D53.png"" style=""width: 100%; height: 100%; object-fit: cover;"">
                                    </div>
                                    
                                    <div style=""width: 95%; aspect-ratio: 1;"">
                                        <img src=""images/D55.png"" style=""width: 100%; height: 100%; object-fit: cover;"">
                                    </div>
                                    
                                    <div style=""width: 95%; aspect-ratio: 1;"">
                                        <img src=""images/D56.png"" style=""width: 100%; height: 100%; object-fit: cover;"">
                                    </div>
                                    
                                    <div style=""width: 95%; aspect-ratio: 1;"">
                                        <img src=""images/D57.png"" style=""width: 100%; height: 100%; object-fit: cover;"">
                                    </div>
                                    
                                    <div style=""width: 95%; aspect-ratio: 1;"">
                                        <img src=""images/D64.png"" style=""width: 100%; height: 100%; object-fit: cover;"">
                                    </div>
                                    
                                    <div style=""width: 95%; aspect-ratio: 1;"">
                                        <img src=""images/D65.png"" style=""width: 100%; height: 100%; object-fit: cover;"">
                                    </div>
                                    
                                    <div style=""width: 95%; aspect-ratio: 1;"">
                                        <img src=""images/D66.png"" style=""width: 100%; height: 100%; object-fit: cover;"">
                                    </div>
                                    
                                    <div style=""width: 95%; aspect-ratio: 1;"">
                                        <img src=""images/D68.png"" style=""width: 100%; height: 100%; object-fit: cover;"">
                                    </div>
                                    
                                    <div style=""width: 95%; aspect-ratio: 1;"">
                                        <img src=""images/D74.png"" style=""width: 100%; height: 100%; object-fit: cover;"">
                                    </div>
                                    
                                    <div style=""width: 95%; aspect-ratio: 1;"">
                                        <img src=""images/D75.png"" style=""width: 100%; height: 100%; object-fit: cover;"">
                                    </div>
                                    
                                    <div style=""width: 95%; aspect-ratio: 1;"">
                                        <img src=""images/D76.png"" style=""width: 100%; height: 100%; object-fit: cover;"">
                                    </div>
                                    
                                    <div style=""width: 95%; aspect-ratio: 1;"">
                                        <img src=""images/D77.png"" style=""width: 100%; height: 100%; object-fit: cover;"">
                                    </div>
                                    
                                    <div style=""width: 95%; aspect-ratio: 1;"">
                                        <img src=""images/D78.png"" style=""width: 100%; height: 100%; object-fit: cover;"">
                                    </div>
                                    
                                    <div style=""width: 95%; aspect-ratio: 1;"">
                                        <img src=""images/D79.png"" style=""width: 100%; height: 100%; object-fit: cover;"">
                                    </div>
                                    
                                    <div style=""width: 95%; aspect-ratio: 1;"">
                                        <img src=""images/D81.png"" style=""width: 100%; height: 100%; object-fit: cover;"">
                                    </div>
                                    
                                    <div style=""width: 95%; aspect-ratio: 1;"">
                                        <img src=""images/D82.png"" style=""width: 100%; height: 100%; object-fit: cover;"">
                                    </div>
                                    
                                    <div style=""width: 95%; aspect-ratio: 1;"">
                                        <img src=""images/D83.png"" style=""width: 100%; height: 100%; object-fit: cover;"">
                                    </div>
                                    
                                    <div style=""width: 95%; aspect-ratio: 1;"">
                                        <img src=""images/D84.png"" style=""width: 100%; height: 100%; object-fit: cover;"">
                                    </div>
                                    
                                    <div style=""width: 95%; aspect-ratio: 1;"">
                                        <img src=""images/D85.png"" style=""width: 100%; height: 100%; object-fit: cover;"">
                                    </div>
                                    
                                    <div style=""width: 95%; aspect-ratio: 1;"">
                                        <img src=""images/D87.png"" style=""width: 100%; height: 100%; object-fit: cover;"">
                                    </div>
                                    
                                    <div style=""width: 95%; aspect-ratio: 1;"">
                                        <img src=""images/D92.png"" style=""width: 100%; height: 100%; object-fit: cover;"">
                                    </div>
                                    
                                    <div style=""width: 95%; aspect-ratio: 1;"">
                                        <img src=""images/D94.png"" style=""width: 100%; height: 100%; object-fit: cover;"">
                                    </div>
                                    
                                    <div style=""width: 95%; aspect-ratio: 1;"">
                                        <img src=""images/D95.png"" style=""width: 100%; height: 100%; object-fit: cover;"">
                                    </div>
                                    
                                    <div style=""width: 95%; aspect-ratio: 1;"">
                                        <img src=""images/D96.png"" style=""width: 100%; height: 100%; object-fit: cover;"">
                                    </div>
                                    
                                    <div style=""width: 95%; aspect-ratio: 1;"">
                                        <img src=""images/D101.png"" style=""width: 100%; height: 100%; object-fit: cover;"">
                                    </div>
                                    
                                    <div style=""width: 95%; aspect-ratio: 1;"">
                                        <img src=""images/D102.png"" style=""width: 100%; height: 100%; object-fit: cover;"">
                                    </div>
                                    
                                    <div style=""width: 95%; aspect-ratio: 1;"">
                                        <img src=""images/D103.png"" style=""width: 100%; height: 100%; object-fit: cover;"">
                                    </div>
                                    
                                    <div style=""width: 95%; aspect-ratio: 1;"">
                                        <img src=""images/D104.png"" style=""width: 100%; height: 100%; object-fit: cover;"">
                                    </div>
                                    
                                    <div style=""width: 95%; aspect-ratio: 1;"">
                                        <img src=""images/D105.png"" style=""width: 100%; height: 100%; object-fit: cover;"">
                                    </div>
                                    
                                </div>
                            </div>
                            <br>
                            <div style='text-align:left; font-size:18px; line-height:25px; width: 1200px;'>
                                Each trial will include one concept word and one visual texture. You will be asked to make your rating by
                                sliding the cursor along a slider response scale.<br>                                Before beginning, please look at the list of concepts and textures.                                 For each concept, think about the texture you associate least with it.                                When you see that texture paired with that concept please click on the left endpoint of the scale near 'not at
                                all'.                                Now, please think about the texture you associate most with it.                                When you see that texture paired with that concept please click on the right endpoint of the scale near 'very
                                much'. <br><br>                                Please use the full range of the scale.                                That is, if you believe a concept is somewhat associated with a texture, you would click at the midpoint of the
                                scale.                                You will be asked to rate each texture for a given concept before moving on to the next.<br>Press the 'Continue'
                                button for instructions on how to use the slider.

                            </div>
                            <!-- Centered text paragraphs -->

                        </div>
                         ","null","html-slider-response","5","55486","0.0-5.0","vmt9r2cp7g","12","89012","","","0","true","","","",""
"3262","<div style=""width:800px;""><p style=""text-align:left"">To move the slider, click and drag your cursor to the location of the scale where you would like to make your rating and then let go. When you let go of the slider, your response will be recorded and the next trial will begin. <br>
                    We are interested in your initial impressions of each concept for a given scale, so please go with your first intuition. <br>
                    Before you begin the experiment, there will be four training trials for you to practice using the slider. <br>
                     When you are ready to start the training trials, please click ""Continue"".</p><br></div>","0","html-button-response","6","58749","0.0-6.0","vmt9r2cp7g","12","89012","","","","","","","",""
"NaN","<div style=""width:500px;"">
                                    <p style=""font-size:25px;"">Please move the slider all the way to the <br> right endpoint of the scale</p>

                                    </div>
                                </div>","200","html-slider-response","7","61105","0.0-7.0-0.0","vmt9r2cp7g","12","89012","","","0","true","0","true","",""
"936","<p align='center'><b>Good job!</b> Click on 'Continue' to proceed.</p>","0","html-button-response","8","62544","0.0-7.0-1.0","vmt9r2cp7g","12","89012","","","","","","","",""
"NaN","<div style=""width:500px;"">
                                    <p style=""font-size:25px;"">Please move the slider all the way to the <br> left endpoint of the scale</p>

                                    </div>
                                </div>","-200","html-slider-response","9","64237","0.0-8.0-0.0","vmt9r2cp7g","12","89012","","","0","true","1","true","",""
"848","<p align='center'><b>Good job!</b> Click on 'Continue' to proceed.</p>","0","html-button-response","10","65588","0.0-8.0-1.0","vmt9r2cp7g","12","89012","","","","","","","",""
"NaN","<div style=""width:500px;"">
                                    <p style=""font-size:25px;"">Please move the slider halfway between the center and right endpoint of the scale</p>

                                    </div>
                                </div>","107","html-slider-response","11","71173","0.0-9.0-0.0","vmt9r2cp7g","12","89012","","","0","true","2","true","",""
"897","<p align='center'><b>Good job!</b> Click on 'Continue' to proceed.</p>","0","html-button-response","12","72573","0.0-9.0-1.0","vmt9r2cp7g","12","89012","","","","","","","",""
"NaN","<div style=""width:500px;"">
                                    <p style=""font-size:25px;"">Please move the slider halfway between the center and left endpoint of the scale</p>

                                    </div>
                                </div>","-100","html-slider-response","13","74756","0.0-10.0-0.0","vmt9r2cp7g","12","89012","","","0","true","3","true","",""
"603","<p align='center'><b>Good job!</b> Click on 'Continue' to proceed.</p>","0","html-button-response","14","75861","0.0-10.0-1.0","vmt9r2cp7g","12","89012","","","","","","","",""
"643","<p>Great job! You've completed the practice trials. Now you will begin the main task.</p>","0","html-button-response","15","76506","0.0-11.0","vmt9r2cp7g","12","89012","","","","","","","",""
"1663","<p>In this block of trials, you will be asked to rate how much you associate each texture with the concept</p > <p style = 'font-size:150%; font-weight: bold'>working</p><br></br>","0","html-button-response","16","78170","0.0-12.0","vmt9r2cp7g","12","89012","","","","","","","",""
"NaN","<div style=""width:500px;"">
                            <p style=""font-size:50px; font-weight:bold;""
                            >working</p>
                            <div style=""width:240px; margin: auto;"">
                                <img src=""images/D1.png"" style= ""width:200px""alt=""img"">
                            </div>
                        </div>","66","html-slider-response","17","81577","0.0-13.0","vmt9r2cp7g","12","89012","","","0","","","","working","images/D1.png"
"NaN","<div style=""width:500px;"">
                            <p style=""font-size:50px; font-weight:bold;""
                            >working</p>
                            <div style=""width:240px; margin: auto;"">
                                <img src=""images/D19.png"" style= ""width:200px""alt=""img"">
                            </div>
                        </div>","-94","html-slider-response","18","84449","0.0-14.0","vmt9r2cp7g","12","89012","","","0","","","","working","images/D19.png"
"NaN","<div style=""width:500px;"">
                            <p style=""font-size:50px; font-weight:bold;""
                            >working</p>
                            <div style=""width:240px; margin: auto;"">
                                <img src=""images/D85.png"" style= ""width:200px""alt=""img"">
                            </div>
                        </div>","-44","html-slider-response","19","86774","0.0-15.0","vmt9r2cp7g","12","89012","","","0","","","","working","images/D85.png"
"NaN","<div style=""width:500px;"">
                            <p style=""font-size:50px; font-weight:bold;""
                            >working</p>
                            <div style=""width:240px; margin: auto;"">
                                <img src=""images/D64.png"" style= ""width:200px""alt=""img"">
                            </div>
                        </div>","187","html-slider-response","20","89231","0.0-16.0","vmt9r2cp7g","12","89012","","","0","","","","working","images/D64.png"
"NaN","<div style=""width:500px;"">
                            <p style=""font-size:50px; font-weight:bold;""
                            >working</p>
                            <div style=""width:240px; margin: auto;"">
                                <img src=""images/D18.png"" style= ""width:200px""alt=""img"">
                            </div>
                        </div>","32","html-slider-response","21","91883","0.0-17.0","vmt9r2cp7g","12","89012","","","0","","","","working","images/D18.png"
"NaN","<div style=""width:500px;"">
                            <p style=""font-size:50px; font-weight:bold;""
                            >working</p>
                            <div style=""width:240px; margin: auto;"">
                                <img src=""images/D53.png"" style= ""width:200px""alt=""img"">
                            </div>
                        </div>","64","html-slider-response","22","93890","0.0-18.0","vmt9r2cp7g","12","89012","","","0","","","","working","images/D53.png"
"NaN","<div style=""width:500px;"">
                            <p style=""font-size:50px; font-weight:bold;""
                            >working</p>
                            <div style=""width:240px; margin: auto;"">
                                <img src=""images/D92.png"" style= ""width:200px""alt=""img"">
                            </div>
                        </div>","-47","html-slider-response","23","96102","0.0-19.0","vmt9r2cp7g","12","89012","","","0","","","","working","images/D92.png"
"NaN","<div style=""width:500px;"">
                            <p style=""font-size:50px; font-weight:bold;""
                            >working</p>
                            <div style=""width:240px; margin: auto;"">
                                <img src=""images/D8.png"" style= ""width:200px""alt=""img"">
                            </div>
                        </div>","-125","html-slider-response","24","98452","0.0-20.0","vmt9r2cp7g","12","89012","","","0","","","","working","images/D8.png"
"NaN","<div style=""width:500px;"">
                            <p style=""font-size:50px; font-weight:bold;""
                            >working</p>
                            <div style=""width:240px; margin: auto;"">
                                <img src=""images/D17.png"" style= ""width:200px""alt=""img"">
                            </div>
                        </div>","-199","html-slider-response","25","100785","0.0-21.0","vmt9r2cp7g","12","89012","","","0","","","","working","images/D17.png"
"NaN","<div style=""width:500px;"">
                            <p style=""font-size:50px; font-weight:bold;""
                            >working</p>
                            <div style=""width:240px; margin: auto;"">
                                <img src=""images/D82.png"" style= ""width:200px""alt=""img"">
                            </div>
                        </div>","-103","html-slider-response","26","102743","0.0-22.0","vmt9r2cp7g","12","89012","","","0","","","","working","images/D82.png"
"NaN","<div style=""width:500px;"">
                            <p style=""font-size:50px; font-weight:bold;""
                            >working</p>
                            <div style=""width:240px; margin: auto;"">
                                <img src=""images/D34.png"" style= ""width:200px""alt=""img"">
                            </div>
                        </div>","-52","html-slider-response","27","105395","0.0-23.0","vmt9r2cp7g","12","89012","","","0","","","","working","images/D34.png"
"NaN","<div style=""width:500px;"">
                            <p style=""font-size:50px; font-weight:bold;""
                            >working</p>
                            <div style=""width:240px; margin: auto;"">
                                <img src=""images/D11.png"" style= ""width:200px""alt=""img"">
                            </div>
                        </div>","-190","html-slider-response","28","107655","0.0-24.0","vmt9r2cp7g","12","89012","","","0","","","","working","images/D11.png"
"NaN","<div style=""width:500px;"">
                            <p style=""font-size:50px; font-weight:bold;""
                            >working</p>
                            <div style=""width:240px; margin: auto;"">
                                <img src=""images/D104.png"" style= ""width:200px""alt=""img"">
                            </div>
                        </div>","25","html-slider-response","29","110193","0.0-25.0","vmt9r2cp7g","12","89012","","","0","","","","working","images/D104.png"
"NaN","<div style=""width:500px;"">
                            <p style=""font-size:50px; font-weight:bold;""
                            >working</p>
                            <div style=""width:240px; margin: auto;"">
                                <img src=""images/D68.png"" style= ""width:200px""alt=""img"">
                            </div>
                        </div>","-33","html-slider-response","30","111808","0.0-26.0","vmt9r2cp7g","12","89012","","","0","","","","working","images/D68.png"
"NaN","<div style=""width:500px;"">
                            <p style=""font-size:50px; font-weight:bold;""
                            >working</p>
                            <div style=""width:240px; margin: auto;"">
                                <img src=""images/D36.png"" style= ""width:200px""alt=""img"">
                            </div>
                        </div>","-121","html-slider-response","31","114281","0.0-27.0","vmt9r2cp7g","12","89012","","","0","","","","working","images/D36.png"
"NaN","<div style=""width:500px;"">
                            <p style=""font-size:50px; font-weight:bold;""
                            >working</p>
                            <div style=""width:240px; margin: auto;"">
                                <img src=""images/D75.png"" style= ""width:200px""alt=""img"">
                            </div>
                        </div>","44","html-slider-response","32","117121","0.0-28.0","vmt9r2cp7g","12","89012","","","0","","","","working","images/D75.png"
"NaN","<div style=""width:500px;"">
                            <p style=""font-size:50px; font-weight:bold;""
                            >working</p>
                            <div style=""width:240px; margin: auto;"">
                                <img src=""images/D111.png"" style= ""width:200px""alt=""img"">
                            </div>
                        </div>","-90","html-slider-response","33","119431","0.0-29.0","vmt9r2cp7g","12","89012","","","0","","","","working","images/D111.png"
"NaN","<div style=""width:500px;"">
                            <p style=""font-size:50px; font-weight:bold;""
                            >working</p>
                            <div style=""width:240px; margin: auto;"">
                                <img src=""images/D22.png"" style= ""width:200px""alt=""img"">
                            </div>
                        </div>","-78","html-slider-response","34","122386","0.0-30.0","vmt9r2cp7g","12","89012","","","0","","","","working","images/D22.png"
"NaN","<div style=""width:500px;"">
                            <p style=""font-size:50px; font-weight:bold;""
                            >working</p>
                            <div style=""width:240px; margin: auto;"">
                                <img src=""images/D87.png"" style= ""width:200px""alt=""img"">
                            </div>
                        </div>","34","html-slider-response","35","126261","0.0-31.0","vmt9r2cp7g","12","89012","","","0","","","","working","images/D87.png"
"NaN","<div style=""width:500px;"">
                            <p style=""font-size:50px; font-weight:bold;""
                            >working</p>
                            <div style=""width:240px; margin: auto;"">
                                <img src=""images/D52.png"" style= ""width:200px""alt=""img"">
                            </div>
                        </div>","63","html-slider-response","36","128194","0.0-32.0","vmt9r2cp7g","12","89012","","","0","","","","working","images/D52.png"
"NaN","<div style=""width:500px;"">
                            <p style=""font-size:50px; font-weight:bold;""
                            >working</p>
                            <div style=""width:240px; margin: auto;"">
                                <img src=""images/D66.png"" style= ""width:200px""alt=""img"">
                            </div>
                        </div>","17","html-slider-response","37","130903","0.0-33.0","vmt9r2cp7g","12","89012","","","0","","","","working","images/D66.png"
"NaN","<div style=""width:500px;"">
                            <p style=""font-size:50px; font-weight:bold;""
                            >working</p>
                            <div style=""width:240px; margin: auto;"">
                                <img src=""images/D14.png"" style= ""width:200px""alt=""img"">
                            </div>
                        </div>","2","html-slider-response","38","132510","0.0-34.0","vmt9r2cp7g","12","89012","","","0","","","","working","images/D14.png"
"NaN","<div style=""width:500px;"">
                            <p style=""font-size:50px; font-weight:bold;""
                            >working</p>
                            <div style=""width:240px; margin: auto;"">
                                <img src=""images/D16.png"" style= ""width:200px""alt=""img"">
                            </div>
                        </div>","-199","html-slider-response","39","134184","0.0-35.0","vmt9r2cp7g","12","89012","","","0","","","","working","images/D16.png"
"NaN","<div style=""width:500px;"">
                            <p style=""font-size:50px; font-weight:bold;""
                            >working</p>
                            <div style=""width:240px; margin: auto;"">
                                <img src=""images/D26.png"" style= ""width:200px""alt=""img"">
                            </div>
                        </div>","48","html-slider-response","40","136223","0.0-36.0","vmt9r2cp7g","12","89012","","","0","","","","working","images/D26.png"
"NaN","<div style=""width:500px;"">
                            <p style=""font-size:50px; font-weight:bold;""
                            >working</p>
                            <div style=""width:240px; margin: auto;"">
                                <img src=""images/D81.png"" style= ""width:200px""alt=""img"">
                            </div>
                        </div>","-190","html-slider-response","41","138352","0.0-37.0","vmt9r2cp7g","12","89012","","","0","","","","working","images/D81.png"
"NaN","<div style=""width:500px;"">
                            <p style=""font-size:50px; font-weight:bold;""
                            >working</p>
                            <div style=""width:240px; margin: auto;"">
                                <img src=""images/D79.png"" style= ""width:200px""alt=""img"">
                            </div>
                        </div>","-145","html-slider-response","42","140140","0.0-38.0","vmt9r2cp7g","12","89012","","","0","","","","working","images/D79.png"
"NaN","<div style=""width:500px;"">
                            <p style=""font-size:50px; font-weight:bold;""
                            >working</p>
                            <div style=""width:240px; margin: auto;"">
                                <img src=""images/D102.png"" style= ""width:200px""alt=""img"">
                            </div>
                        </div>","103","html-slider-response","43","143299","0.0-39.0","vmt9r2cp7g","12","89012","","","0","","","","working","images/D102.png"
"NaN","<div style=""width:500px;"">
                            <p style=""font-size:50px; font-weight:bold;""
                            >working</p>
                            <div style=""width:240px; margin: auto;"">
                                <img src=""images/D103.png"" style= ""width:200px""alt=""img"">
                            </div>
                        </div>","-90","html-slider-response","44","145371","0.0-40.0","vmt9r2cp7g","12","89012","","","0","","","","working","images/D103.png"
"NaN","<div style=""width:500px;"">
                            <p style=""font-size:50px; font-weight:bold;""
                            >working</p>
                            <div style=""width:240px; margin: auto;"">
                                <img src=""images/D94.png"" style= ""width:200px""alt=""img"">
                            </div>
                        </div>","172","html-slider-response","45","147300","0.0-41.0","vmt9r2cp7g","12","89012","","","0","","","","working","images/D94.png"
"NaN","<div style=""width:500px;"">
                            <p style=""font-size:50px; font-weight:bold;""
                            >working</p>
                            <div style=""width:240px; margin: auto;"">
                                <img src=""images/D65.png"" style= ""width:200px""alt=""img"">
                            </div>
                        </div>","174","html-slider-response","46","149687","0.0-42.0","vmt9r2cp7g","12","89012","","","0","","","","working","images/D65.png"
"NaN","<div style=""width:500px;"">
                            <p style=""font-size:50px; font-weight:bold;""
                            >working</p>
                            <div style=""width:240px; margin: auto;"">
                                <img src=""images/D74.png"" style= ""width:200px""alt=""img"">
                            </div>
                        </div>","59","html-slider-response","47","151728","0.0-43.0","vmt9r2cp7g","12","89012","","","0","","","","working","images/D74.png"
"NaN","<div style=""width:500px;"">
                            <p style=""font-size:50px; font-weight:bold;""
                            >working</p>
                            <div style=""width:240px; margin: auto;"">
                                <img src=""images/D101.png"" style= ""width:200px""alt=""img"">
                            </div>
                        </div>","51","html-slider-response","48","154127","0.0-44.0","vmt9r2cp7g","12","89012","","","0","","","","working","images/D101.png"
"NaN","<div style=""width:500px;"">
                            <p style=""font-size:50px; font-weight:bold;""
                            >working</p>
                            <div style=""width:240px; margin: auto;"">
                                <img src=""images/D25.png"" style= ""width:200px""alt=""img"">
                            </div>
                        </div>","164","html-slider-response","49","157129","0.0-45.0","vmt9r2cp7g","12","89012","","","0","","","","working","images/D25.png"
"NaN","<div style=""width:500px;"">
                            <p style=""font-size:50px; font-weight:bold;""
                            >working</p>
                            <div style=""width:240px; margin: auto;"">
                                <img src=""images/D95.png"" style= ""width:200px""alt=""img"">
                            </div>
                        </div>","158","html-slider-response","50","159537","0.0-46.0","vmt9r2cp7g","12","89012","","","0","","","","working","images/D95.png"
"NaN","<div style=""width:500px;"">
                            <p style=""font-size:50px; font-weight:bold;""
                            >working</p>
                            <div style=""width:240px; margin: auto;"">
                                <img src=""images/D46.png"" style= ""width:200px""alt=""img"">
                            </div>
                        </div>","-18","html-slider-response","51","162883","0.0-47.0","vmt9r2cp7g","12","89012","","","0","","","","working","images/D46.png"
"NaN","<div style=""width:500px;"">
                            <p style=""font-size:50px; font-weight:bold;""
                            >working</p>
                            <div style=""width:240px; margin: auto;"">
                                <img src=""images/D48.png"" style= ""width:200px""alt=""img"">
                            </div>
                        </div>","-115","html-slider-response","52","165307","0.0-48.0","vmt9r2cp7g","12","89012","","","0","","","","working","images/D48.png"
"NaN","<div style=""width:500px;"">
                            <p style=""font-size:50px; font-weight:bold;""
                            >working</p>
                            <div style=""width:240px; margin: auto;"">
                                <img src=""images/D76.png"" style= ""width:200px""alt=""img"">
                            </div>
                        </div>","-146","html-slider-response","53","168270","0.0-49.0","vmt9r2cp7g","12","89012","","","0","","","","working","images/D76.png"
"NaN","<div style=""width:500px;"">
                            <p style=""font-size:50px; font-weight:bold;""
                            >working</p>
                            <div style=""width:240px; margin: auto;"">
                                <img src=""images/D105.png"" style= ""width:200px""alt=""img"">
                            </div>
                        </div>","-77","html-slider-response","54","170131","0.0-50.0","vmt9r2cp7g","12","89012","","","0","","","","working","images/D105.png"
"NaN","<div style=""width:500px;"">
                            <p style=""font-size:50px; font-weight:bold;""
                            >working</p>
                            <div style=""width:240px; margin: auto;"">
                                <img src=""images/D77.png"" style= ""width:200px""alt=""img"">
                            </div>
                        </div>","-79","html-slider-response","55","172258","0.0-51.0","vmt9r2cp7g","12","89012","","","0","","","","working","images/D77.png"
"NaN","<div style=""width:500px;"">
                            <p style=""font-size:50px; font-weight:bold;""
                            >working</p>
                            <div style=""width:240px; margin: auto;"">
                                <img src=""images/D57.png"" style= ""width:200px""alt=""img"">
                            </div>
                        </div>","-74","html-slider-response","56","174543","0.0-52.0","vmt9r2cp7g","12","89012","","","0","","","","working","images/D57.png"
"NaN","<div style=""width:500px;"">
                            <p style=""font-size:50px; font-weight:bold;""
                            >working</p>
                            <div style=""width:240px; margin: auto;"">
                                <img src=""images/D35.png"" style= ""width:200px""alt=""img"">
                            </div>
                        </div>","48","html-slider-response","57","176453","0.0-53.0","vmt9r2cp7g","12","89012","","","0","","","","working","images/D35.png"
"NaN","<div style=""width:500px;"">
                            <p style=""font-size:50px; font-weight:bold;""
                            >working</p>
                            <div style=""width:240px; margin: auto;"">
                                <img src=""images/D55.png"" style= ""width:200px""alt=""img"">
                            </div>
                        </div>","-78","html-slider-response","58","178608","0.0-54.0","vmt9r2cp7g","12","89012","","","0","","","","working","images/D55.png"
"NaN","<div style=""width:500px;"">
                            <p style=""font-size:50px; font-weight:bold;""
                            >working</p>
                            <div style=""width:240px; margin: auto;"">
                                <img src=""images/D47.png"" style= ""width:200px""alt=""img"">
                            </div>
                        </div>","-62","html-slider-response","59","180696","0.0-55.0","vmt9r2cp7g","12","89012","","","0","","","","working","images/D47.png"
"NaN","<div style=""width:500px;"">
                            <p style=""font-size:50px; font-weight:bold;""
                            >working</p>
                            <div style=""width:240px; margin: auto;"">
                                <img src=""images/D96.png"" style= ""width:200px""alt=""img"">
                            </div>
                        </div>","134","html-slider-response","60","183137","0.0-56.0","vmt9r2cp7g","12","89012","","","0","","","","working","images/D96.png"
"NaN","<div style=""width:500px;"">
                            <p style=""font-size:50px; font-weight:bold;""
                            >working</p>
                            <div style=""width:240px; margin: auto;"">
                                <img src=""images/D78.png"" style= ""width:200px""alt=""img"">
                            </div>
                        </div>","-105","html-slider-response","61","185339","0.0-57.0","vmt9r2cp7g","12","89012","","","0","","","","working","images/D78.png"
"NaN","<div style=""width:500px;"">
                            <p style=""font-size:50px; font-weight:bold;""
                            >working</p>
                            <div style=""width:240px; margin: auto;"">
                                <img src=""images/D49.png"" style= ""width:200px""alt=""img"">
                            </div>
                        </div>","-98","html-slider-response","62","187477","0.0-58.0","vmt9r2cp7g","12","89012","","","0","","","","working","images/D49.png"
"NaN","<div style=""width:500px;"">
                            <p style=""font-size:50px; font-weight:bold;""
                            >working</p>
                            <div style=""width:240px; margin: auto;"">
                                <img src=""images/D56.png"" style= ""width:200px""alt=""img"">
                            </div>
                        </div>","102","html-slider-response","63","189605","0.0-59.0","vmt9r2cp7g","12","89012","","","0","","","","working","images/D56.png"
"NaN","<div style=""width:500px;"">
                            <p style=""font-size:50px; font-weight:bold;""
                            >working</p>
                            <div style=""width:240px; margin: auto;"">
                                <img src=""images/D20.png"" style= ""width:200px""alt=""img"">
                            </div>
                        </div>","54","html-slider-response","64","193139","0.0-60.0","vmt9r2cp7g","12","89012","","","0","","","","working","images/D20.png"
"NaN","<div style=""width:500px;"">
                            <p style=""font-size:50px; font-weight:bold;""
                            >working</p>
                            <div style=""width:240px; margin: auto;"">
                                <img src=""images/D37.png"" style= ""width:200px""alt=""img"">
                            </div>
                        </div>","-62","html-slider-response","65","195906","0.0-61.0","vmt9r2cp7g","12","89012","","","0","","","","working","images/D37.png"
"NaN","<div style=""width:500px;"">
                            <p style=""font-size:50px; font-weight:bold;""
                            >working</p>
                            <div style=""width:240px; margin: auto;"">
                                <img src=""images/D84.png"" style= ""width:200px""alt=""img"">
                            </div>
                        </div>","-83","html-slider-response","66","198517","0.0-62.0","vmt9r2cp7g","12","89012","","","0","","","","working","images/D84.png"
"NaN","<div style=""width:500px;"">
                            <p style=""font-size:50px; font-weight:bold;""
                            >working</p>
                            <div style=""width:240px; margin: auto;"">
                                <img src=""images/D4.png"" style= ""width:200px""alt=""img"">
                            </div>
                        </div>","-86","html-slider-response","67","200786","0.0-63.0","vmt9r2cp7g","12","89012","","","0","","","","working","images/D4.png"
"NaN","<div style=""width:500px;"">
                            <p style=""font-size:50px; font-weight:bold;""
                            >working</p>
                            <div style=""width:240px; margin: auto;"">
                                <img src=""images/D51.png"" style= ""width:200px""alt=""img"">
                            </div>
                        </div>","-90","html-slider-response","68","203902","0.0-64.0","vmt9r2cp7g","12","89012","","","0","","","","working","images/D51.png"
"NaN","<div style=""width:500px;"">
                            <p style=""font-size:50px; font-weight:bold;""
                            >working</p>
                            <div style=""width:240px; margin: auto;"">
                                <img src=""images/D83.png"" style= ""width:200px""alt=""img"">
                            </div>
                        </div>","24","html-slider-response","69","205868","0.0-65.0","vmt9r2cp7g","12","89012","","","0","","","","working","images/D83.png"
"948","<p>Great Job! You've finished block 1.<br></br> You have 4 block(s) left to go.<br></br></p>","0","html-button-response","70","207318","0.0-66.0","vmt9r2cp7g","12","89012","","","","","","","",""
"NaN","<div style=""width:500px;"">
                            <p style=""font-size:50px; font-weight:bold;""
                            >working</p>
                            <div style=""width:240px; margin: auto;"">
                                <img src=""images/D105.png"" style= ""width:200px""alt=""img"">
                            </div>
                        </div>","-44","html-slider-response","71","210652","0.0-67.0","vmt9r2cp7g","12","89012","","","0","","","","working","images/D105.png"
"NaN","<div style=""width:500px;"">
                            <p style=""font-size:50px; font-weight:bold;""
                            >leisure</p>
                            <div style=""width:240px; margin: auto;"">
                                <img src=""images/D49.png"" style= ""width:200px""alt=""img"">
                            </div>
                        </div>","49","html-slider-response","72","213426","0.0-68.0","vmt9r2cp7g","12","89012","","","0","","","","leisure","images/D49.png"
"NaN","<div style=""width:500px;"">
                            <p style=""font-size:50px; font-weight:bold;""
                            >leisure</p>
                            <div style=""width:240px; margin: auto;"">
                                <img src=""images/D20.png"" style= ""width:200px""alt=""img"">
                            </div>
                        </div>","-177","html-slider-response","73","215537","0.0-69.0","vmt9r2cp7g","12","89012","","","0","","","","leisure","images/D20.png"
"NaN","<div style=""width:500px;"">
                            <p style=""font-size:50px; font-weight:bold;""
                            >leisure</p>
                            <div style=""width:240px; margin: auto;"">
                                <img src=""images/D53.png"" style= ""width:200px""alt=""img"">
                            </div>
                        </div>","-200","html-slider-response","74","217986","0.0-70.0","vmt9r2cp7g","12","89012","","","0","","","","leisure","images/D53.png"
"NaN","<div style=""width:500px;"">
                            <p style=""font-size:50px; font-weight:bold;""
                            >working</p>
                            <div style=""width:240px; margin: auto;"">
                                <img src=""images/D34.png"" style= ""width:200px""alt=""img"">
                            </div>
                        </div>","71","html-slider-response","75","220126","0.0-71.0","vmt9r2cp7g","12","89012","","","0","","","","working","images/D34.png"
"NaN","<div style=""width:500px;"">
                            <p style=""font-size:50px; font-weight:bold;""
                            >leisure</p>
                            <div style=""width:240px; margin: auto;"">
                                <img src=""images/D26.png"" style= ""width:200px""alt=""img"">
                            </div>
                        </div>","-200","html-slider-response","76","222287","0.0-72.0","vmt9r2cp7g","12","89012","","","0","","","","leisure","images/D26.png"
"NaN","<div style=""width:500px;"">
                            <p style=""font-size:50px; font-weight:bold;""
                            >working</p>
                            <div style=""width:240px; margin: auto;"">
                                <img src=""images/D75.png"" style= ""width:200px""alt=""img"">
                            </div>
                        </div>","22","html-slider-response","77","224581","0.0-73.0","vmt9r2cp7g","12","89012","","","0","","","","working","images/D75.png"
"NaN","<div style=""width:500px;"">
                            <p style=""font-size:50px; font-weight:bold;""
                            >working</p>
                            <div style=""width:240px; margin: auto;"">
                                <img src=""images/D57.png"" style= ""width:200px""alt=""img"">
                            </div>
                        </div>","-95","html-slider-response","78","226904","0.0-74.0","vmt9r2cp7g","12","89012","","","0","","","","working","images/D57.png"
"NaN","<div style=""width:500px;"">
                            <p style=""font-size:50px; font-weight:bold;""
                            >leisure</p>
                            <div style=""width:240px; margin: auto;"">
                                <img src=""images/D47.png"" style= ""width:200px""alt=""img"">
                            </div>
                        </div>","-102","html-slider-response","79","229572","0.0-75.0","vmt9r2cp7g","12","89012","","","0","","","","leisure","images/D47.png"
"NaN","<div style=""width:500px;"">
                            <p style=""font-size:50px; font-weight:bold;""
                            >leisure</p>
                            <div style=""width:240px; margin: auto;"">
                                <img src=""images/D82.png"" style= ""width:200px""alt=""img"">
                            </div>
                        </div>","86","html-slider-response","80","232985","0.0-76.0","vmt9r2cp7g","12","89012","","","0","","","","leisure","images/D82.png"
"NaN","<div style=""width:500px;"">
                            <p style=""font-size:50px; font-weight:bold;""
                            >working</p>
                            <div style=""width:240px; margin: auto;"">
                                <img src=""images/D49.png"" style= ""width:200px""alt=""img"">
                            </div>
                        </div>","-1","html-slider-response","81","236126","0.0-77.0","vmt9r2cp7g","12","89012","","","0","","","","working","images/D49.png"
"NaN","<div style=""width:500px;"">
                            <p style=""font-size:50px; font-weight:bold;""
                            >leisure</p>
                            <div style=""width:240px; margin: auto;"">
                                <img src=""images/D104.png"" style= ""width:200px""alt=""img"">
                            </div>
                        </div>","-199","html-slider-response","82","238557","0.0-78.0","vmt9r2cp7g","12","89012","","","0","","","","leisure","images/D104.png"
"NaN","<div style=""width:500px;"">
                            <p style=""font-size:50px; font-weight:bold;""
                            >working</p>
                            <div style=""width:240px; margin: auto;"">
                                <img src=""images/D87.png"" style= ""width:200px""alt=""img"">
                            </div>
                        </div>","62","html-slider-response","83","242205","0.0-79.0","vmt9r2cp7g","12","89012","","","0","","","","working","images/D87.png"
"NaN","<div style=""width:500px;"">
                            <p style=""font-size:50px; font-weight:bold;""
                            >leisure</p>
                            <div style=""width:240px; margin: auto;"">
                                <img src=""images/D77.png"" style= ""width:200px""alt=""img"">
                            </div>
                        </div>","46","html-slider-response","84","244982","0.0-80.0","vmt9r2cp7g","12","89012","","","0","","","","leisure","images/D77.png"
"NaN","<div style=""width:500px;"">
                            <p style=""font-size:50px; font-weight:bold;""
                            >leisure</p>
                            <div style=""width:240px; margin: auto;"">
                                <img src=""images/D76.png"" style= ""width:200px""alt=""img"">
                            </div>
                        </div>","-31","html-slider-response","85","247085","0.0-81.0","vmt9r2cp7g","12","89012","","","0","","","","leisure","images/D76.png"
"NaN","<div style=""width:500px;"">
                            <p style=""font-size:50px; font-weight:bold;""
                            >leisure</p>
                            <div style=""width:240px; margin: auto;"">
                                <img src=""images/D56.png"" style= ""width:200px""alt=""img"">
                            </div>
                        </div>","-182","html-slider-response","86","249385","0.0-82.0","vmt9r2cp7g","12","89012","","","0","","","","leisure","images/D56.png"
"NaN","<div style=""width:500px;"">
                            <p style=""font-size:50px; font-weight:bold;""
                            >leisure</p>
                            <div style=""width:240px; margin: auto;"">
                                <img src=""images/D51.png"" style= ""width:200px""alt=""img"">
                            </div>
                        </div>","-200","html-slider-response","87","251067","0.0-83.0","vmt9r2cp7g","12","89012","","","0","","","","leisure","images/D51.png"
"NaN","<div style=""width:500px;"">
                            <p style=""font-size:50px; font-weight:bold;""
                            >working</p>
                            <div style=""width:240px; margin: auto;"">
                                <img src=""images/D94.png"" style= ""width:200px""alt=""img"">
                            </div>
                        </div>","200","html-slider-response","88","253097","0.0-84.0","vmt9r2cp7g","12","89012","","","0","","","","working","images/D94.png"
"NaN","<div style=""width:500px;"">
                            <p style=""font-size:50px; font-weight:bold;""
                            >working</p>
                            <div style=""width:240px; margin: auto;"">
                                <img src=""images/D26.png"" style= ""width:200px""alt=""img"">
                            </div>
                        </div>","200","html-slider-response","89","254870","0.0-85.0","vmt9r2cp7g","12","89012","","","0","","","","working","images/D26.png"
"NaN","<div style=""width:500px;"">
                            <p style=""font-size:50px; font-weight:bold;""
                            >leisure</p>
                            <div style=""width:240px; margin: auto;"">
                                <img src=""images/D46.png"" style= ""width:200px""alt=""img"">
                            </div>
                        </div>","-68","html-slider-response","90","256819","0.0-86.0","vmt9r2cp7g","12","89012","","","0","","","","leisure","images/D46.png"
"NaN","<div style=""width:500px;"">
                            <p style=""font-size:50px; font-weight:bold;""
                            >leisure</p>
                            <div style=""width:240px; margin: auto;"">
                                <img src=""images/D64.png"" style= ""width:200px""alt=""img"">
                            </div>
                        </div>","-25","html-slider-response","91","260533","0.0-87.0","vmt9r2cp7g","12","89012","","","0","","","","leisure","images/D64.png"
"NaN","<div style=""width:500px;"">
                            <p style=""font-size:50px; font-weight:bold;""
                            >working</p>
                            <div style=""width:240px; margin: auto;"">
                                <img src=""images/D36.png"" style= ""width:200px""alt=""img"">
                            </div>
                        </div>","-39","html-slider-response","92","263030","0.0-88.0","vmt9r2cp7g","12","89012","","","0","","","","working","images/D36.png"
"NaN","<div style=""width:500px;"">
                            <p style=""font-size:50px; font-weight:bold;""
                            >working</p>
                            <div style=""width:240px; margin: auto;"">
                                <img src=""images/D22.png"" style= ""width:200px""alt=""img"">
                            </div>
                        </div>","37","html-slider-response","93","265027","0.0-89.0","vmt9r2cp7g","12","89012","","","0","","","","working","images/D22.png"
"NaN","<div style=""width:500px;"">
                            <p style=""font-size:50px; font-weight:bold;""
                            >leisure</p>
                            <div style=""width:240px; margin: auto;"">
                                <img src=""images/D68.png"" style= ""width:200px""alt=""img"">
                            </div>
                        </div>","87","html-slider-response","94","267490","0.0-90.0","vmt9r2cp7g","12","89012","","","0","","","","leisure","images/D68.png"
"NaN","<div style=""width:500px;"">
                            <p style=""font-size:50px; font-weight:bold;""
                            >leisure</p>
                            <div style=""width:240px; margin: auto;"">
                                <img src=""images/D18.png"" style= ""width:200px""alt=""img"">
                            </div>
                        </div>","130","html-slider-response","95","269768","0.0-91.0","vmt9r2cp7g","12","89012","","","0","","","","leisure","images/D18.png"
"NaN","<div style=""width:500px;"">
                            <p style=""font-size:50px; font-weight:bold;""
                            >working</p>
                            <div style=""width:240px; margin: auto;"">
                                <img src=""images/D17.png"" style= ""width:200px""alt=""img"">
                            </div>
                        </div>","-129","html-slider-response","96","272446","0.0-92.0","vmt9r2cp7g","12","89012","","","0","","","","working","images/D17.png"
"NaN","<div style=""width:500px;"">
                            <p style=""font-size:50px; font-weight:bold;""
                            >working</p>
                            <div style=""width:240px; margin: auto;"">
                                <img src=""images/D20.png"" style= ""width:200px""alt=""img"">
                            </div>
                        </div>","6","html-slider-response","97","275006","0.0-93.0","vmt9r2cp7g","12","89012","","","0","","","","working","images/D20.png"
"NaN","<div style=""width:500px;"">
                            <p style=""font-size:50px; font-weight:bold;""
                            >working</p>
                            <div style=""width:240px; margin: auto;"">
                                <img src=""images/D19.png"" style= ""width:200px""alt=""img"">
                            </div>
                        </div>","-62","html-slider-response","98","277714","0.0-94.0","vmt9r2cp7g","12","89012","","","0","","","","working","images/D19.png"
"NaN","<div style=""width:500px;"">
                            <p style=""font-size:50px; font-weight:bold;""
                            >leisure</p>
                            <div style=""width:240px; margin: auto;"">
                                <img src=""images/D79.png"" style= ""width:200px""alt=""img"">
                            </div>
                        </div>","26","html-slider-response","99","279959","0.0-95.0","vmt9r2cp7g","12","89012","","","0","","","","leisure","images/D79.png"
"NaN","<div style=""width:500px;"">
                            <p style=""font-size:50px; font-weight:bold;""
                            >leisure</p>
                            <div style=""width:240px; margin: auto;"">
                                <img src=""images/D52.png"" style= ""width:200px""alt=""img"">
                            </div>
                        </div>","-189","html-slider-response","100","281860","0.0-96.0","vmt9r2cp7g","12","89012","","","0","","","","leisure","images/D52.png"
"NaN","<div style=""width:500px;"">
                            <p style=""font-size:50px; font-weight:bold;""
                            >working</p>
                            <div style=""width:240px; margin: auto;"">
                                <img src=""images/D74.png"" style= ""width:200px""alt=""img"">
                            </div>
                        </div>","113","html-slider-response","101","284038","0.0-97.0","vmt9r2cp7g","12","89012","","","0","","","","working","images/D74.png"
"NaN","<div style=""width:500px;"">
                            <p style=""font-size:50px; font-weight:bold;""
                            >working</p>
                            <div style=""width:240px; margin: auto;"">
                                <img src=""images/D53.png"" style= ""width:200px""alt=""img"">
                            </div>
                        </div>","98","html-slider-response","102","285851","0.0-98.0","vmt9r2cp7g","12","89012","","","0","","","","working","images/D53.png"
"NaN","<div style=""width:500px;"">
                            <p style=""font-size:50px; font-weight:bold;""
                            >leisure</p>
                            <div style=""width:240px; margin: auto;"">
                                <img src=""images/D105.png"" style= ""width:200px""alt=""img"">
                            </div>
                        </div>","-28","html-slider-response","103","287931","0.0-99.0","vmt9r2cp7g","12","89012","","","0","","","","leisure","images/D105.png"
"NaN","<div style=""width:500px;"">
                            <p style=""font-size:50px; font-weight:bold;""
                            >leisure</p>
                            <div style=""width:240px; margin: auto;"">
                                <img src=""images/D94.png"" style= ""width:200px""alt=""img"">
                            </div>
                        </div>","-200","html-slider-response","104","289775","0.0-100.0","vmt9r2cp7g","12","89012","","","0","","","","leisure","images/D94.png"
"NaN","<div style=""width:500px;"">
                            <p style=""font-size:50px; font-weight:bold;""
                            >working</p>
                            <div style=""width:240px; margin: auto;"">
                                <img src=""images/D92.png"" style= ""width:200px""alt=""img"">
                            </div>
                        </div>","-47","html-slider-response","105","291489","0.0-101.0","vmt9r2cp7g","12","89012","","","0","","","","working","images/D92.png"
"NaN","<div style=""width:500px;"">
                            <p style=""font-size:50px; font-weight:bold;""
                            >working</p>
                            <div style=""width:240px; margin: auto;"">
                                <img src=""images/D111.png"" style= ""width:200px""alt=""img"">
                            </div>
                        </div>","-49","html-slider-response","106","293291","0.0-102.0","vmt9r2cp7g","12","89012","","","0","","","","working","images/D111.png"
"NaN","<div style=""width:500px;"">
                            <p style=""font-size:50px; font-weight:bold;""
                            >leisure</p>
                            <div style=""width:240px; margin: auto;"">
                                <img src=""images/D74.png"" style= ""width:200px""alt=""img"">
                            </div>
                        </div>","-186","html-slider-response","107","295529","0.0-103.0","vmt9r2cp7g","12","89012","","","0","","","","leisure","images/D74.png"
"NaN","<div style=""width:500px;"">
                            <p style=""font-size:50px; font-weight:bold;""
                            >leisure</p>
                            <div style=""width:240px; margin: auto;"">
                                <img src=""images/D11.png"" style= ""width:200px""alt=""img"">
                            </div>
                        </div>","152","html-slider-response","108","297673","0.0-104.0","vmt9r2cp7g","12","89012","","","0","","","","leisure","images/D11.png"
"NaN","<div style=""width:500px;"">
                            <p style=""font-size:50px; font-weight:bold;""
                            >working</p>
                            <div style=""width:240px; margin: auto;"">
                                <img src=""images/D81.png"" style= ""width:200px""alt=""img"">
                            </div>
                        </div>","-97","html-slider-response","109","299941","0.0-105.0","vmt9r2cp7g","12","89012","","","0","","","","working","images/D81.png"
"NaN","<div style=""width:500px;"">
                            <p style=""font-size:50px; font-weight:bold;""
                            >working</p>
                            <div style=""width:240px; margin: auto;"">
                                <img src=""images/D16.png"" style= ""width:200px""alt=""img"">
                            </div>
                        </div>","4","html-slider-response","110","302014","0.0-106.0","vmt9r2cp7g","12","89012","","","0","","","","working","images/D16.png"
"NaN","<div style=""width:500px;"">
                            <p style=""font-size:50px; font-weight:bold;""
                            >working</p>
                            <div style=""width:240px; margin: auto;"">
                                <img src=""images/D95.png"" style= ""width:200px""alt=""img"">
                            </div>
                        </div>","200","html-slider-response","111","304771","0.0-107.0","vmt9r2cp7g","12","89012","","","0","","","","working","images/D95.png"
"NaN","<div style=""width:500px;"">
                            <p style=""font-size:50px; font-weight:bold;""
                            >working</p>
                            <div style=""width:240px; margin: auto;"">
                                <img src=""images/D65.png"" style= ""width:200px""alt=""img"">
                            </div>
                        </div>","94","html-slider-response","112","306730","0.0-108.0","vmt9r2cp7g","12","89012","","","0","","","","working","images/D65.png"
"NaN","<div style=""width:500px;"">
                            <p style=""font-size:50px; font-weight:bold;""
                            >leisure</p>
                            <div style=""width:240px; margin: auto;"">
                                <img src=""images/D48.png"" style= ""width:200px""alt=""img"">
                            </div>
                        </div>","-200","html-slider-response","113","309097","0.0-109.0","vmt9r2cp7g","12","89012","","","0","","","","leisure","images/D48.png"
"NaN","<div style=""width:500px;"">
                            <p style=""font-size:50px; font-weight:bold;""
                            >working</p>
                            <div style=""width:240px; margin: auto;"">
                                <img src=""images/D35.png"" style= ""width:200px""alt=""img"">
                            </div>
                        </div>","-96","html-slider-response","114","310972","0.0-110.0","vmt9r2cp7g","12","89012","","","0","","","","working","images/D35.png"
"NaN","<div style=""width:500px;"">
                            <p style=""font-size:50px; font-weight:bold;""
                            >working</p>
                            <div style=""width:240px; margin: auto;"">
                                <img src=""images/D55.png"" style= ""width:200px""alt=""img"">
                            </div>
                        </div>","-83","html-slider-response","115","313135","0.0-111.0","vmt9r2cp7g","12","89012","","","0","","","","working","images/D55.png"
"NaN","<div style=""width:500px;"">
                            <p style=""font-size:50px; font-weight:bold;""
                            >leisure</p>
                            <div style=""width:240px; margin: auto;"">
                                <img src=""images/D22.png"" style= ""width:200px""alt=""img"">
                            </div>
                        </div>","-83","html-slider-response","116","315485","0.0-112.0","vmt9r2cp7g","12","89012","","","0","","","","leisure","images/D22.png"
"NaN","<div style=""width:500px;"">
                            <p style=""font-size:50px; font-weight:bold;""
                            >leisure</p>
                            <div style=""width:240px; margin: auto;"">
                                <img src=""images/D78.png"" style= ""width:200px""alt=""img"">
                            </div>
                        </div>","78","html-slider-response","117","318234","0.0-113.0","vmt9r2cp7g","12","89012","","","0","","","","leisure","images/D78.png"
"NaN","<div style=""width:500px;"">
                            <p style=""font-size:50px; font-weight:bold;""
                            >leisure</p>
                            <div style=""width:240px; margin: auto;"">
                                <img src=""images/D102.png"" style= ""width:200px""alt=""img"">
                            </div>
                        </div>","-197","html-slider-response","118","320315","0.0-114.0","vmt9r2cp7g","12","89012","","","0","","","","leisure","images/D102.png"
"NaN","<div style=""width:500px;"">
                            <p style=""font-size:50px; font-weight:bold;""
                            >leisure</p>
                            <div style=""width:240px; margin: auto;"">
                                <img src=""images/D111.png"" style= ""width:200px""alt=""img"">
                            </div>
                        </div>","-200","html-slider-response","119","322004","0.0-115.0","vmt9r2cp7g","12","89012","","","0","","","","leisure","images/D111.png"
"NaN","<div style=""width:500px;"">
                            <p style=""font-size:50px; font-weight:bold;""
                            >working</p>
                            <div style=""width:240px; margin: auto;"">
                                <img src=""images/D84.png"" style= ""width:200px""alt=""img"">
                            </div>
                        </div>","-109","html-slider-response","120","324516","0.0-116.0","vmt9r2cp7g","12","89012","","","0","","","","working","images/D84.png"
"NaN","<div style=""width:500px;"">
                            <p style=""font-size:50px; font-weight:bold;""
                            >leisure</p>
                            <div style=""width:240px; margin: auto;"">
                                <img src=""images/D87.png"" style= ""width:200px""alt=""img"">
                            </div>
                        </div>","-200","html-slider-response","121","326369","0.0-117.0","vmt9r2cp7g","12","89012","","","0","","","","leisure","images/D87.png"
"NaN","<div style=""width:500px;"">
                            <p style=""font-size:50px; font-weight:bold;""
                            >working</p>
                            <div style=""width:240px; margin: auto;"">
                                <img src=""images/D82.png"" style= ""width:200px""alt=""img"">
                            </div>
                        </div>","15","html-slider-response","122","327919","0.0-118.0","vmt9r2cp7g","12","89012","","","0","","","","working","images/D82.png"
"NaN","<div style=""width:500px;"">
                            <p style=""font-size:50px; font-weight:bold;""
                            >working</p>
                            <div style=""width:240px; margin: auto;"">
                                <img src=""images/D52.png"" style= ""width:200px""alt=""img"">
                            </div>
                        </div>","133","html-slider-response","123","330253","0.0-119.0","vmt9r2cp7g","12","89012","","","0","","","","working","images/D52.png"
"NaN","<div style=""width:500px;"">
                            <p style=""font-size:50px; font-weight:bold;""
                            >working</p>
                            <div style=""width:240px; margin: auto;"">
                                <img src=""images/D64.png"" style= ""width:200px""alt=""img"">
                            </div>
                        </div>","142","html-slider-response","124","332202","0.0-120.0","vmt9r2cp7g","12","89012","","","0","","","","working","images/D64.png"
"NaN","<div style=""width:500px;"">
                            <p style=""font-size:50px; font-weight:bold;""
                            >working</p>
                            <div style=""width:240px; margin: auto;"">
                                <img src=""images/D47.png"" style= ""width:200px""alt=""img"">
                            </div>
                        </div>","131","html-slider-response","125","334675","0.0-121.0","vmt9r2cp7g","12","89012","","","0","","","","working","images/D47.png"
"NaN","<div style=""width:500px;"">
                            <p style=""font-size:50px; font-weight:bold;""
                            >working</p>
                            <div style=""width:240px; margin: auto;"">
                                <img src=""images/D25.png"" style= ""width:200px""alt=""img"">
                            </div>
                        </div>","134","html-slider-response","126","336316","0.0-122.0","vmt9r2cp7g","12","89012","","","0","","","","working","images/D25.png"
"NaN","<div style=""width:500px;"">
                            <p style=""font-size:50px; font-weight:bold;""
                            >working</p>
                            <div style=""width:240px; margin: auto;"">
                                <img src=""images/D51.png"" style= ""width:200px""alt=""img"">
                            </div>
                        </div>","162","html-slider-response","127","338467","0.0-123.0","vmt9r2cp7g","12","89012","","","0","","","","working","images/D51.png"
"NaN","<div style=""width:500px;"">
                            <p style=""font-size:50px; font-weight:bold;""
                            >leisure</p>
                            <div style=""width:240px; margin: auto;"">
                                <img src=""images/D34.png"" style= ""width:200px""alt=""img"">
                            </div>
                        </div>","-138","html-slider-response","128","340216","0.0-124.0","vmt9r2cp7g","12","89012","","","0","","","","leisure","images/D34.png"
"NaN","<div style=""width:500px;"">
                            <p style=""font-size:50px; font-weight:bold;""
                            >leisure</p>
                            <div style=""width:240px; margin: auto;"">
                                <img src=""images/D17.png"" style= ""width:200px""alt=""img"">
                            </div>
                        </div>","177","html-slider-response","129","342223","0.0-125.0","vmt9r2cp7g","12","89012","","","0","","","","leisure","images/D17.png"
"NaN","<div style=""width:500px;"">
                            <p style=""font-size:50px; font-weight:bold;""
                            >leisure</p>
                            <div style=""width:240px; margin: auto;"">
                                <img src=""images/D19.png"" style= ""width:200px""alt=""img"">
                            </div>
                        </div>","94","html-slider-response","130","344230","0.0-126.0","vmt9r2cp7g","12","89012","","","0","","","","leisure","images/D19.png"
"NaN","<div style=""width:500px;"">
                            <p style=""font-size:50px; font-weight:bold;""
                            >working</p>
                            <div style=""width:240px; margin: auto;"">
                                <img src=""images/D77.png"" style= ""width:200px""alt=""img"">
                            </div>
                        </div>","-24","html-slider-response","131","346408","0.0-127.0","vmt9r2cp7g","12","89012","","","0","","","","working","images/D77.png"
"NaN","<div style=""width:500px;"">
                            <p style=""font-size:50px; font-weight:bold;""
                            >leisure</p>
                            <div style=""width:240px; margin: auto;"">
                                <img src=""images/D16.png"" style= ""width:200px""alt=""img"">
                            </div>
                        </div>","200","html-slider-response","132","348147","0.0-128.0","vmt9r2cp7g","12","89012","","","0","","","","leisure","images/D16.png"
"NaN","<div style=""width:500px;"">
                            <p style=""font-size:50px; font-weight:bold;""
                            >working</p>
                            <div style=""width:240px; margin: auto;"">
                                <img src=""images/D18.png"" style= ""width:200px""alt=""img"">
                            </div>
                        </div>","-21","html-slider-response","133","350742","0.0-129.0","vmt9r2cp7g","12","89012","","","0","","","","working","images/D18.png"
"NaN","<div style=""width:500px;"">
                            <p style=""font-size:50px; font-weight:bold;""
                            >leisure</p>
                            <div style=""width:240px; margin: auto;"">
                                <img src=""images/D83.png"" style= ""width:200px""alt=""img"">
                            </div>
                        </div>","46","html-slider-response","134","352674","0.0-130.0","vmt9r2cp7g","12","89012","","","0","","","","leisure","images/D83.png"
"NaN","<div style=""width:500px;"">
                            <p style=""font-size:50px; font-weight:bold;""
                            >working</p>
                            <div style=""width:240px; margin: auto;"">
                                <img src=""images/D48.png"" style= ""width:200px""alt=""img"">
                            </div>
                        </div>","-198","html-slider-response","135","354632","0.0-131.0","vmt9r2cp7g","12","89012","","","0","","","","working","images/D48.png"
"NaN","<div style=""width:500px;"">
                            <p style=""font-size:50px; font-weight:bold;""
                            >working</p>
                            <div style=""width:240px; margin: auto;"">
                                <img src=""images/D37.png"" style= ""width:200px""alt=""img"">
                            </div>
                        </div>","1","html-slider-response","136","357520","0.0-132.0","vmt9r2cp7g","12","89012","","","0","","","","working","images/D37.png"
"NaN","<div style=""width:500px;"">
                            <p style=""font-size:50px; font-weight:bold;""
                            >leisure</p>
                            <div style=""width:240px; margin: auto;"">
                                <img src=""images/D65.png"" style= ""width:200px""alt=""img"">
                            </div>
                        </div>","-200","html-slider-response","137","359422","0.0-133.0","vmt9r2cp7g","12","89012","","","0","","","","leisure","images/D65.png"
"NaN","<div style=""width:500px;"">
                            <p style=""font-size:50px; font-weight:bold;""
                            >leisure</p>
                            <div style=""width:240px; margin: auto;"">
                                <img src=""images/D96.png"" style= ""width:200px""alt=""img"">
                            </div>
                        </div>","-200","html-slider-response","138","361249","0.0-134.0","vmt9r2cp7g","12","89012","","","0","","","","leisure","images/D96.png"
"NaN","<div style=""width:500px;"">
                            <p style=""font-size:50px; font-weight:bold;""
                            >leisure</p>
                            <div style=""width:240px; margin: auto;"">
                                <img src=""images/D37.png"" style= ""width:200px""alt=""img"">
                            </div>
                        </div>","-142","html-slider-response","139","363354","0.0-135.0","vmt9r2cp7g","12","89012","","","0","","","","leisure","images/D37.png"
"NaN","<div style=""width:500px;"">
                            <p style=""font-size:50px; font-weight:bold;""
                            >working</p>
                            <div style=""width:240px; margin: auto;"">
                                <img src=""images/D56.png"" style= ""width:200px""alt=""img"">
                            </div>
                        </div>","56","html-slider-response","140","366179","0.0-136.0","vmt9r2cp7g","12","89012","","","0","","","","working","images/D56.png"
"NaN","<div style=""width:500px;"">
                            <p style=""font-size:50px; font-weight:bold;""
                            >leisure</p>
                            <div style=""width:240px; margin: auto;"">
                                <img src=""images/D4.png"" style= ""width:200px""alt=""img"">
                            </div>
                        </div>","-91","html-slider-response","141","368503","0.0-137.0","vmt9r2cp7g","12","89012","","","0","","","","leisure","images/D4.png"
"NaN","<div style=""width:500px;"">
                            <p style=""font-size:50px; font-weight:bold;""
                            >leisure</p>
                            <div style=""width:240px; margin: auto;"">
                                <img src=""images/D84.png"" style= ""width:200px""alt=""img"">
                            </div>
                        </div>","2","html-slider-response","142","373105","0.0-138.0","vmt9r2cp7g","12","89012","","","0","","","","leisure","images/D84.png"
"NaN","<div style=""width:500px;"">
                            <p style=""font-size:50px; font-weight:bold;""
                            >working</p>
                            <div style=""width:240px; margin: auto;"">
                                <img src=""images/D11.png"" style= ""width:200px""alt=""img"">
                            </div>
                        </div>","-143","html-slider-response","143","375380","0.0-139.0","vmt9r2cp7g","12","89012","","","0","","","","working","images/D11.png"
"NaN","<div style=""width:500px;"">
                            <p style=""font-size:50px; font-weight:bold;""
                            >leisure</p>
                            <div style=""width:240px; margin: auto;"">
                                <img src=""images/D66.png"" style= ""width:200px""alt=""img"">
                            </div>
                        </div>","-200","html-slider-response","144","377272","0.0-140.0","vmt9r2cp7g","12","89012","","","0","","","","leisure","images/D66.png"
"NaN","<div style=""width:500px;"">
                            <p style=""font-size:50px; font-weight:bold;""
                            >leisure</p>
                            <div style=""width:240px; margin: auto;"">
                                <img src=""images/D55.png"" style= ""width:200px""alt=""img"">
                            </div>
                        </div>","88","html-slider-response","145","379118","0.0-141.0","vmt9r2cp7g","12","89012","","","0","","","","leisure","images/D55.png"
"NaN","<div style=""width:500px;"">
                            <p style=""font-size:50px; font-weight:bold;""
                            >leisure</p>
                            <div style=""width:240px; margin: auto;"">
                                <img src=""images/D36.png"" style= ""width:200px""alt=""img"">
                            </div>
                        </div>","-67","html-slider-response","146","380944","0.0-142.0","vmt9r2cp7g","12","89012","","","0","","","","leisure","images/D36.png"
"NaN","<div style=""width:500px;"">
                            <p style=""font-size:50px; font-weight:bold;""
                            >leisure</p>
                            <div style=""width:240px; margin: auto;"">
                                <img src=""images/D14.png"" style= ""width:200px""alt=""img"">
                            </div>
                        </div>","-78","html-slider-response","147","383270","0.0-143.0","vmt9r2cp7g","12","89012","","","0","","","","leisure","images/D14.png"
"NaN","<div style=""width:500px;"">
                            <p style=""font-size:50px; font-weight:bold;""
                            >leisure</p>
                            <div style=""width:240px; margin: auto;"">
                                <img src=""images/D101.png"" style= ""width:200px""alt=""img"">
                            </div>
                        </div>","-200","html-slider-response","148","384936","0.0-144.0","vmt9r2cp7g","12","89012","","","0","","","","leisure","images/D101.png"
"NaN","<div style=""width:500px;"">
                            <p style=""font-size:50px; font-weight:bold;""
                            >leisure</p>
                            <div style=""width:240px; margin: auto;"">
                                <img src=""images/D92.png"" style= ""width:200px""alt=""img"">
                            </div>
                        </div>","-200","html-slider-response","149","386632","0.0-145.0","vmt9r2cp7g","12","89012","","","0","","","","leisure","images/D92.png"
"NaN","<div style=""width:500px;"">
                            <p style=""font-size:50px; font-weight:bold;""
                            >working</p>
                            <div style=""width:240px; margin: auto;"">
                                <img src=""images/D1.png"" style= ""width:200px""alt=""img"">
                            </div>
                        </div>","200","html-slider-response","150","388332","0.0-146.0","vmt9r2cp7g","12","89012","","","0","","","","working","images/D1.png"
"NaN","<div style=""width:500px;"">
                            <p style=""font-size:50px; font-weight:bold;""
                            >working</p>
                            <div style=""width:240px; margin: auto;"">
                                <img src=""images/D79.png"" style= ""width:200px""alt=""img"">
                            </div>
                        </div>","-74","html-slider-response","151","391496","0.0-147.0","vmt9r2cp7g","12","89012","","","0","","","","working","images/D79.png"
"NaN","<div style=""width:500px;"">
                            <p style=""font-size:50px; font-weight:bold;""
                            >working</p>
                            <div style=""width:240px; margin: auto;"">
                                <img src=""images/D96.png"" style= ""width:200px""alt=""img"">
                            </div>
                        </div>","200","html-slider-response","152","393086","0.0-148.0","vmt9r2cp7g","12","89012","","","0","","","","working","images/D96.png"
"NaN","<div style=""width:500px;"">
                            <p style=""font-size:50px; font-weight:bold;""
                            >working</p>
                            <div style=""width:240px; margin: auto;"">
                                <img src=""images/D78.png"" style= ""width:200px""alt=""img"">
                            </div>
                        </div>","-65","html-slider-response","153","398519","0.0-149.0","vmt9r2cp7g","12","89012","","","0","","","","working","images/D78.png"
"NaN","<div style=""width:500px;"">
                            <p style=""font-size:50px; font-weight:bold;""
                            >working</p>
                            <div style=""width:240px; margin: auto;"">
                                <img src=""images/D102.png"" style= ""width:200px""alt=""img"">
                            </div>
                        </div>","106","html-slider-response","154","479690","0.0-150.0","vmt9r2cp7g","12","89012","","","0","","","","working","images/D102.png"
"NaN","<div style=""width:500px;"">
                            <p style=""font-size:50px; font-weight:bold;""
                            >working</p>
                            <div style=""width:240px; margin: auto;"">
                                <img src=""images/D68.png"" style= ""width:200px""alt=""img"">
                            </div>
                        </div>","31","html-slider-response","155","482865","0.0-151.0","vmt9r2cp7g","12","89012","","","0","","","","working","images/D68.png"
"NaN","<div style=""width:500px;"">
                            <p style=""font-size:50px; font-weight:bold;""
                            >working</p>
                            <div style=""width:240px; margin: auto;"">
                                <img src=""images/D66.png"" style= ""width:200px""alt=""img"">
                            </div>
                        </div>","58","html-slider-response","156","488397","0.0-152.0","vmt9r2cp7g","12","89012","","","0","","","","working","images/D66.png"
"NaN","<div style=""width:500px;"">
                            <p style=""font-size:50px; font-weight:bold;""
                            >working</p>
                            <div style=""width:240px; margin: auto;"">
                                <img src=""images/D101.png"" style= ""width:200px""alt=""img"">
                            </div>
                        </div>","63","html-slider-response","157","490392","0.0-153.0","vmt9r2cp7g","12","89012","","","0","","","","working","images/D101.png"
"NaN","<div style=""width:500px;"">
                            <p style=""font-size:50px; font-weight:bold;""
                            >working</p>
                            <div style=""width:240px; margin: auto;"">
                                <img src=""images/D76.png"" style= ""width:200px""alt=""img"">
                            </div>
                        </div>","-34","html-slider-response","158","492424","0.0-154.0","vmt9r2cp7g","12","89012","","","0","","","","working","images/D76.png"
"NaN","<div style=""width:500px;"">
                            <p style=""font-size:50px; font-weight:bold;""
                            >leisure</p>
                            <div style=""width:240px; margin: auto;"">
                                <img src=""images/D35.png"" style= ""width:200px""alt=""img"">
                            </div>
                        </div>","-105","html-slider-response","159","494515","0.0-155.0","vmt9r2cp7g","12","89012","","","0","","","","leisure","images/D35.png"
"NaN","<div style=""width:500px;"">
                            <p style=""font-size:50px; font-weight:bold;""
                            >working</p>
                            <div style=""width:240px; margin: auto;"">
                                <img src=""images/D4.png"" style= ""width:200px""alt=""img"">
                            </div>
                        </div>","1","html-slider-response","160","500044","0.0-156.0","vmt9r2cp7g","12","89012","","","0","","","","working","images/D4.png"
"NaN","<div style=""width:500px;"">
                            <p style=""font-size:50px; font-weight:bold;""
                            >leisure</p>
                            <div style=""width:240px; margin: auto;"">
                                <img src=""images/D103.png"" style= ""width:200px""alt=""img"">
                            </div>
                        </div>","-46","html-slider-response","161","502231","0.0-157.0","vmt9r2cp7g","12","89012","","","0","","","","leisure","images/D103.png"
"NaN","<div style=""width:500px;"">
                            <p style=""font-size:50px; font-weight:bold;""
                            >leisure</p>
                            <div style=""width:240px; margin: auto;"">
                                <img src=""images/D1.png"" style= ""width:200px""alt=""img"">
                            </div>
                        </div>","-200","html-slider-response","162","504079","0.0-158.0","vmt9r2cp7g","12","89012","","","0","","","","leisure","images/D1.png"
"NaN","<div style=""width:500px;"">
                            <p style=""font-size:50px; font-weight:bold;""
                            >working</p>
                            <div style=""width:240px; margin: auto;"">
                                <img src=""images/D85.png"" style= ""width:200px""alt=""img"">
                            </div>
                        </div>","-98","html-slider-response","163","506813","0.0-159.0","vmt9r2cp7g","12","89012","","","0","","","","working","images/D85.png"
"NaN","<div style=""width:500px;"">
                            <p style=""font-size:50px; font-weight:bold;""
                            >working</p>
                            <div style=""width:240px; margin: auto;"">
                                <img src=""images/D14.png"" style= ""width:200px""alt=""img"">
                            </div>
                        </div>","1","html-slider-response","164","526753","0.0-160.0","vmt9r2cp7g","12","89012","","","0","","","","working","images/D14.png"
"NaN","<div style=""width:500px;"">
                            <p style=""font-size:50px; font-weight:bold;""
                            >leisure</p>
                            <div style=""width:240px; margin: auto;"">
                                <img src=""images/D75.png"" style= ""width:200px""alt=""img"">
                            </div>
                        </div>","-200","html-slider-response","165","528915","0.0-161.0","vmt9r2cp7g","12","89012","","","0","","","","leisure","images/D75.png"
"NaN","<div style=""width:500px;"">
                            <p style=""font-size:50px; font-weight:bold;""
                            >leisure</p>
                            <div style=""width:240px; margin: auto;"">
                                <img src=""images/D95.png"" style= ""width:200px""alt=""img"">
                            </div>
                        </div>","-200","html-slider-response","166","530694","0.0-162.0","vmt9r2cp7g","12","89012","","","0","","","","leisure","images/D95.png"
"NaN","<div style=""width:500px;"">
                            <p style=""font-size:50px; font-weight:bold;""
                            >leisure</p>
                            <div style=""width:240px; margin: auto;"">
